soundFile,df,soa,thisN,thisTrialN,thisRepN,key_resp.keys,key_resp.rt,key_resp.duration,key_resp_2.keys,key_resp_2.rt,key_resp_2.duration,key_resp_3.keys,key_resp_3.rt,key_resp_3.duration,practiceLoop.thisRepN,practiceLoop.thisTrialN,practiceLoop.thisN,practiceLoop.thisIndex,mainLoop.thisRepN,mainLoop.thisTrialN,mainLoop.thisN,mainLoop.thisIndex,mainLoop2.thisRepN,mainLoop2.thisTrialN,mainLoop2.thisN,mainLoop2.thisIndex,thisRow.t,notes,instr.started,instrText.started,instrKey.started,instr.stopped,instrKey.keys,instrKey.rt,instrKey.duration,practice_intro.started,pracIntroText.started,pracIntroKey.started,practice_intro.stopped,pracIntroKey.keys,pracIntroKey.rt,pracIntroKey.duration,practice_trial_sound.started,fixation.started,fixation.stopped,stimSound.started,stimSound.stopped,practice_trial_sound.stopped,practice_trial_response.started,response.started,key_resp.started,practice_trial_response.stopped,practiceLoop.key_resp.keys,practiceLoop.key_resp.rt,practiceLoop.key_resp.duration,main_intro.started,main_text.started,start_key.started,main_intro.stopped,start_key.keys,start_key.rt,start_key.duration,main_trial_sound.started,fixation_2.started,fixation_2.stopped,stimSound_2.started,stimSound_2.stopped,main_trial_sound.stopped,main_trial_response.started,response_2.started,key_resp_2.started,main_trial_response.stopped,mainLoop.key_resp_2.keys,mainLoop.key_resp_2.rt,mainLoop.key_resp_2.duration,break_2.started,break_text.started,break_key.started,break_2.stopped,break_key.keys,break_key.rt,break_key.duration,main_trial_sound2.started,fixation_3.started,fixation_3.stopped,stimSound_3.started,stimSound_3.stopped,main_trial_sound2.stopped,main_trial_response2.started,response_3.started,key_resp_3.started,main_trial_response2.stopped,mainLoop2.key_resp_3.keys,mainLoop2.key_resp_3.rt,mainLoop2.key_resp_3.duration,thanks.started,thanks_text.started,thanks_text.stopped,thanks.stopped,participant,session,date,expName,expVersion,psychopyVersion,frameRate,expStart,
,,,,,,,,,,,,,,,,,,,,,,,,,,,,,0.007972207997227088,0.021064542001113296,0.021064542001113296,9.703987499990035,space,9.503539458004525,None,,,,,,,,,,,,,,,,,,,,,,,,,,,,,,,,,,,,,,,,,,,,,,,,,,,,,,,,,,,,,,,,,meg,001,2026-03-12_10h55.58.434,ASS_builder_online,,2025.1.1,None,2026-03-12 10h56.04.920449 +0900,
,,,,,,,,,,,,,,,,,,,,,,,,,,,,,,,,,,,,9.704012125002919,9.712682082987158,9.712682082987158,16.63311641701148,space,6.911057082994375,None,,,,,,,,,,,,,,,,,,,,,,,,,,,,,,,,,,,,,,,,,,,,,,,,,,,,,,,,,,meg,001,2026-03-12_10h55.58.434,ASS_builder_online,,2025.1.1,None,2026-03-12 10h56.04.920449 +0900,
stimuli/stim_df4_soa0.12.wav,4,0.12,0,0,0,2,2.528787415998522,None,,,,,,,0,0,0,4,,,,,,,,,16.688802124990616,,,,,,,,,,,,,,,,16.66805983299855,16.688802124990616,17.38737779200892,17.437260041657524,23.213958875014214,23.20521675000782,23.205304958013585,23.213958875014214,23.213958875014214,25.749705416994402,2,2.528787415998522,None,,,,,,,,,,,,,,,,,,,,,,,,,,,,,,,,,,,,,,,,,,,,,meg,001,2026-03-12_10h55.58.434,ASS_builder_online,,2025.1.1,None,2026-03-12 10h56.04.920449 +0900,
stimuli/stim_df6_soa0.09.wav,6,0.09,1,1,0,1,0.6880158739804756,None,,,,,,,0,1,1,6,,,,,,,,,25.775722958002007,,,,,,,,,,,,,,,,25.767797458014684,25.775722958002007,26.470232874999056,26.554076208678694,30.89804233299219,30.882115125015844,30.88218504199176,30.89804233299219,30.89804233299219,31.58951758299372,1,0.6880158739804756,None,,,,,,,,,,,,,,,,,,,,,,,,,,,,,,,,,,,,,,,,,,,,,meg,001,2026-03-12_10h55.58.434,ASS_builder_online,,2025.1.1,None,2026-03-12 10h56.04.920449 +0900,
stimuli/stim_df12_soa0.12.wav,12,0.12,2,2,0,1,0.605553790985141,None,,,,,,,0,2,2,16,,,,,,,,,31.617100041999947,,,,,,,,,,,,,,,,31.609967166994466,31.617100041999947,32.314117625006475,32.397784624660076,38.18129870799021,38.165851833007764,38.165902500011725,38.18129870799021,38.18129870799021,38.79004579200409,1,0.605553790985141,None,,,,,,,,,,,,,,,,,,,,,,,,,,,,,,,,,,,,,,,,,,,,,meg,001,2026-03-12_10h55.58.434,ASS_builder_online,,2025.1.1,None,2026-03-12 10h56.04.920449 +0900,
stimuli/stim_df6_soa0.12.wav,6,0.12,3,3,0,2,0.49657579098129645,None,,,,,,,0,3,3,7,,,,,,,,,38.81764458300313,,,,,,,,,,,,,,,,38.808344958000816,38.81764458300313,39.51416625001002,39.597889041677504,45.38121616700664,45.36597491698922,45.3660404580005,45.38121616700664,45.38121616700664,45.882850916997995,2,0.49657579098129645,None,,,,,,,,,,,,,,,,,,,,,,,,,,,,,,,,,,,,,,,,,,,,,meg,001,2026-03-12_10h55.58.434,ASS_builder_online,,2025.1.1,None,2026-03-12 10h56.04.920449 +0900,
stimuli/stim_df12_soa0.18.wav,12,0.18,4,4,0,1,0.4242190409859177,None,,,,,,,0,4,4,17,,,,,,,,,45.91760458299541,,,,,,,,,,,,,,,,45.91019379199133,45.91760458299541,46.614596500003245,46.68761341667074,55.3473842079984,55.335642124991864,55.33572716699564,55.3473842079984,55.3473842079984,55.78402645801543,1,0.4242190409859177,None,,,,,,,,,,,,,,,,,,,,,,,,,,,,,,,,,,,,,,,,,,,,,meg,001,2026-03-12_10h55.58.434,ASS_builder_online,,2025.1.1,None,2026-03-12 10h56.04.920449 +0900,
stimuli/stim_df12_soa0.09.wav,12,0.09,5,5,0,2,0.5914937490015291,None,,,,,,,0,5,5,15,,,,,,,,,55.806725041999016,,,,,,,,,,,,,,,,55.79883920800057,55.806725041999016,56.504384166997625,56.58753191665552,60.92307945800712,60.91585641700658,60.91594437501044,60.92307945800712,60.92307945800712,61.52279591700062,2,0.5914937490015291,None,,,,,,,,,,,,,,,,,,,,,,,,,,,,,,,,,,,,,,,,,,,,,meg,001,2026-03-12_10h55.58.434,ASS_builder_online,,2025.1.1,None,2026-03-12 10h56.04.920449 +0900,
stimuli/stim_df8_soa0.18.wav,8,0.18,6,6,0,2,0.30847979098325595,None,,,,,,,0,6,6,11,,,,,,,,,61.55223925001337,,,,,,,,,,,,,,,,61.54536754201399,61.55223925001337,62.24737629201263,62.33130412467678,70.9868485830084,70.97883987499517,70.97896100001526,70.9868485830084,70.9868485830084,71.29954137498862,2,0.30847979098325595,None,,,,,,,,,,,,,,,,,,,,,,,,,,,,,,,,,,,,,,,,,,,,,meg,001,2026-03-12_10h55.58.434,ASS_builder_online,,2025.1.1,None,2026-03-12 10h56.04.920449 +0900,
stimuli/stim_df4_soa0.18.wav,4,0.18,7,7,0,1,0.2079581239959225,None,,,,,,,0,7,7,5,,,,,,,,,71.33075208301307,,,,,,,,,,,,,,,,71.32411533300183,71.33075208301307,72.02114575001178,72.10342591666655,80.76448837498901,80.75110895800753,80.75116633300786,80.76448837498901,80.76448837498901,80.98335187500925,1,0.2079581239959225,None,,,,,,,,,,,,,,,,,,,,,,,,,,,,,,,,,,,,,,,,,,,,,meg,001,2026-03-12_10h55.58.434,ASS_builder_online,,2025.1.1,None,2026-03-12 10h56.04.920449 +0900,
stimuli/stim_df10_soa0.09.wav,10,0.09,8,8,0,2,0.3238174990110565,None,,,,,,,0,8,8,12,,,,,,,,,81.00531716700061,,,,,,,,,,,,,,,,80.99684241699288,81.00531716700061,81.69794887499302,81.78767524965612,86.13138958299533,86.11575349999475,86.11582237499533,86.13138958299533,86.13138958299533,86.46711683299509,2,0.3238174990110565,None,,,,,,,,,,,,,,,,,,,,,,,,,,,,,,,,,,,,,,,,,,,,,meg,001,2026-03-12_10h55.58.434,ASS_builder_online,,2025.1.1,None,2026-03-12 10h56.04.920449 +0900,
stimuli/stim_df2_soa0.12.wav,2,0.12,9,9,0,2,0.41469445801340044,None,,,,,,,0,9,9,1,,,,,,,,,86.49119920801604,,,,,,,,,,,,,,,,86.48399516701465,86.49119920801604,87.18665758299176,87.27112499965394,93.04683770801057,93.03726645800634,93.0373190419923,93.04683770801057,93.04683770801057,93.46579437499167,2,0.41469445801340044,None,,,,,,,,,,,,,,,,,,,,,,,,,,,,,,,,,,,,,,,,,,,,,meg,001,2026-03-12_10h55.58.434,ASS_builder_online,,2025.1.1,None,2026-03-12 10h56.04.920449 +0900,
stimuli/stim_df10_soa0.18.wav,10,0.18,10,10,0,2,0.6008473330002744,None,,,,,,,0,10,10,14,,,,,,,,,93.49713491700822,,,,,,,,,,,,,,,,93.4887644170085,93.49713491700822,94.18779437500052,94.27053008365716,102.93134120799368,102.91751883301185,102.91756854200503,102.93134120799368,102.93134120799368,103.54006808300619,2,0.6008473330002744,None,,,,,,,,,,,,,,,,,,,,,,,,,,,,,,,,,,,,,,,,,,,,,meg,001,2026-03-12_10h55.58.434,ASS_builder_online,,2025.1.1,None,2026-03-12 10h56.04.920449 +0900,
stimuli/stim_df6_soa0.18.wav,6,0.18,11,11,0,1,2.7540498320013285,None,,,,,,,0,11,11,8,,,,,,,,,103.57202391698956,,,,,,,,,,,,,,,,103.56303729201318,103.57202391698956,104.27104629200767,104.3479163336781,113.00266175001161,112.99543170799734,112.99549825000577,113.00266175001161,113.00266175001161,115.76654112499091,1,2.7540498320013285,None,,,,,,,,,,,,,,,,,,,,,,,,,,,,,,,,,,,,,,,,,,,,,meg,001,2026-03-12_10h55.58.434,ASS_builder_online,,2025.1.1,None,2026-03-12 10h56.04.920449 +0900,
stimuli/stim_df4_soa0.09.wav,4,0.09,12,12,0,2,1.6533551659958903,None,,,,,,,0,12,12,3,,,,,,,,,115.78652566700475,,,,,,,,,,,,,,,,115.77916887501488,115.78652566700475,116.4813115420111,116.5699820416669,120.90594612501445,120.89843662499334,120.89853695800412,120.90594612501445,120.90594612501445,122.5663063749962,2,1.6533551659958903,None,,,,,,,,,,,,,,,,,,,,,,,,,,,,,,,,,,,,,,,,,,,,,meg,001,2026-03-12_10h55.58.434,ASS_builder_online,,2025.1.1,None,2026-03-12 10h56.04.920449 +0900,
stimuli/stim_df8_soa0.09.wav,8,0.09,13,13,0,1,0.5610066240187734,None,,,,,,,0,13,13,9,,,,,,,,,122.58880616701208,,,,,,,,,,,,,,,,122.57943812498706,122.58880616701208,123.2807271250058,123.3703127086667,127.70613825001055,127.69870095798979,127.6988093330001,127.70613825001055,127.70613825001055,128.2730350419879,1,0.5610066240187734,None,,,,,,,,,,,,,,,,,,,,,,,,,,,,,,,,,,,,,,,,,,,,,meg,001,2026-03-12_10h55.58.434,ASS_builder_online,,2025.1.1,None,2026-03-12 10h56.04.920449 +0900,
stimuli/stim_df2_soa0.09.wav,2,0.09,14,14,0,2,0.5134527910267934,None,,,,,,,0,14,14,0,,,,,,,,,128.29562204200192,,,,,,,,,,,,,,,,128.2866634580132,128.29562204200192,128.986788292008,129.08125654166022,133.41683875001036,133.40946908300975,133.40953141701175,133.41683875001036,133.41683875001036,133.93276383299963,2,0.5134527910267934,None,,,,,,,,,,,,,,,,,,,,,,,,,,,,,,,,,,,,,,,,,,,,,meg,001,2026-03-12_10h55.58.434,ASS_builder_online,,2025.1.1,None,2026-03-12 10h56.04.920449 +0900,
stimuli/stim_df10_soa0.12.wav,10,0.12,15,15,0,1,0.7867806660069618,None,,,,,,,0,15,15,13,,,,,,,,,133.9556309170148,,,,,,,,,,,,,,,,133.94796058299835,133.9556309170148,134.64706374998786,134.7367829166799,140.51385479199234,140.50466870798846,140.50474170799134,140.51385479199234,140.51385479199234,141.3066614579875,1,0.7867806660069618,None,,,,,,,,,,,,,,,,,,,,,,,,,,,,,,,,,,,,,,,,,,,,,meg,001,2026-03-12_10h55.58.434,ASS_builder_online,,2025.1.1,None,2026-03-12 10h56.04.920449 +0900,
stimuli/stim_df8_soa0.12.wav,8,0.12,16,16,0,2,0.775988540990511,None,,,,,,,0,16,16,10,,,,,,,,,141.33145900000818,,,,,,,,,,,,,,,,141.32371925000916,141.33145900000818,142.0205675830075,142.11473041665548,147.89814541701344,147.88242720800918,147.8824894579884,147.89814541701344,147.89814541701344,148.68107650001184,2,0.775988540990511,None,,,,,,,,,,,,,,,,,,,,,,,,,,,,,,,,,,,,,,,,,,,,,meg,001,2026-03-12_10h55.58.434,ASS_builder_online,,2025.1.1,None,2026-03-12 10h56.04.920449 +0900,
stimuli/stim_df2_soa0.18.wav,2,0.18,17,17,0,2,0.5576959580066614,None,,,,,,,0,17,17,2,,,,,,,,,148.7059935000143,,,,,,,,,,,,,,,,148.70009850000497,148.7059935000143,149.39729774999432,149.48136758368153,158.13708695801324,158.12910537500284,158.12916916699032,158.13708695801324,158.13708695801324,158.6998584170069,2,0.5576959580066614,None,,,,,,,,,,,,,,,,,,,,,,,,,,,,,,,,,,,,,,,,,,,,,meg,001,2026-03-12_10h55.58.434,ASS_builder_online,,2025.1.1,None,2026-03-12 10h56.04.920449 +0900,
,,,,,,,,,,,,,,,,,,,,,,,,,,,,,,,,,,,,,,,,,,,,,,,,,,,,,,,,158.7001795830147,158.71268258299096,158.71268258299096,167.25009783299174,space,8.527215874986723,None,,,,,,,,,,,,,,,,,,,,,,,,,,,,,,,,,,,,,,meg,001,2026-03-12_10h55.58.434,ASS_builder_online,,2025.1.1,None,2026-03-12 10h56.04.920449 +0900,
stimuli/stim_df10_soa0.12.wav,10,0.12,0,0,0,,,,2,1.0850774569844361,None,,,,,,,,0,0,0,13,,,,,167.2838711249933,,,,,,,,,,,,,,,,,,,,,,,,,,,,,,,,,,,,167.2706388749939,167.2838711249933,167.98118937501567,168.05436349966138,173.83134187498945,173.82246570801362,173.82253683300223,173.83134187498945,173.83134187498945,174.9234529999958,2,1.0850774569844361,None,,,,,,,,,,,,,,,,,,,,,,,,,meg,001,2026-03-12_10h55.58.434,ASS_builder_online,,2025.1.1,None,2026-03-12 10h56.04.920449 +0900,
stimuli/stim_df12_soa0.12.wav,12,0.12,1,1,0,,,,2,0.8916949160047807,None,,,,,,,,0,1,1,16,,,,,174.94796466699336,,,,,,,,,,,,,,,,,,,,,,,,,,,,,,,,,,,,174.94010750000598,174.94796466699336,175.6369228750118,175.73132654166355,181.51471029198729,181.4995167920133,181.49957179199555,181.51471029198729,181.51471029198729,182.4166139579902,2,0.8916949160047807,None,,,,,,,,,,,,,,,,,,,,,,,,,meg,001,2026-03-12_10h55.58.434,ASS_builder_online,,2025.1.1,None,2026-03-12 10h56.04.920449 +0900,
stimuli/stim_df6_soa0.12.wav,6,0.12,2,2,0,,,,2,0.2706504989764653,None,,,,,,,,0,2,2,7,,,,,182.44003512500785,,,,,,,,,,,,,,,,,,,,,,,,,,,,,,,,,,,,182.43279024999356,182.44003512500785,183.1367780000146,183.2210551246574,188.99648662499385,188.98920987499878,188.98927416699007,188.99648662499385,188.99648662499385,189.27312595798867,2,0.2706504989764653,None,,,,,,,,,,,,,,,,,,,,,,,,,meg,001,2026-03-12_10h55.58.434,ASS_builder_online,,2025.1.1,None,2026-03-12 10h56.04.920449 +0900,
stimuli/stim_df12_soa0.09.wav,12,0.09,3,3,0,,,,1,1.361699081986444,None,,,,,,,,0,3,3,15,,,,,189.29577833300573,,,,,,,,,,,,,,,,,,,,,,,,,,,,,,,,,,,,189.2872782080085,189.29577833300573,189.98712987499312,190.08137316667515,194.41758362500696,194.40960358301527,194.40968775001238,194.41758362500696,194.41758362500696,195.78264066699194,1,1.361699081986444,None,,,,,,,,,,,,,,,,,,,,,,,,,meg,001,2026-03-12_10h55.58.434,ASS_builder_online,,2025.1.1,None,2026-03-12 10h56.04.920449 +0900,
stimuli/stim_df4_soa0.12.wav,4,0.12,4,4,0,,,,2,0.2533689999836497,None,,,,,,,,0,4,4,4,,,,,195.80573920800816,,,,,,,,,,,,,,,,,,,,,,,,,,,,,,,,,,,,195.79859416699037,195.80573920800816,196.49736987499637,196.58673270867828,202.36346995801432,202.35485562498798,202.35496462500305,202.36346995801432,202.36346995801432,202.62218695800402,2,0.2533689999836497,None,,,,,,,,,,,,,,,,,,,,,,,,,meg,001,2026-03-12_10h55.58.434,ASS_builder_online,,2025.1.1,None,2026-03-12 10h56.04.920449 +0900,
stimuli/stim_df2_soa0.18.wav,2,0.18,5,5,0,,,,1,0.7675766659958754,None,,,,,,,,0,5,5,2,,,,,202.6513904579915,,,,,,,,,,,,,,,,,,,,,,,,,,,,,,,,,,,,202.64428666699678,202.6513904579915,203.3479950829933,203.43135833368095,212.08616283300216,212.07910016700043,212.0791670420149,212.08616283300216,212.08616283300216,212.8570610420138,1,0.7675766659958754,None,,,,,,,,,,,,,,,,,,,,,,,,,meg,001,2026-03-12_10h55.58.434,ASS_builder_online,,2025.1.1,None,2026-03-12 10h56.04.920449 +0900,
stimuli/stim_df8_soa0.18.wav,8,0.18,6,6,0,,,,2,0.20456754101905972,None,,,,,,,,0,6,6,11,,,,,212.88573383301264,,,,,,,,,,,,,,,,,,,,,,,,,,,,,,,,,,,,212.87874799998826,212.88573383301264,213.58124137501,213.66454245866433,222.319275249989,222.3121004170098,222.31216208299156,222.319275249989,222.319275249989,222.53374466698733,2,0.20456754101905972,None,,,,,,,,,,,,,,,,,,,,,,,,,meg,001,2026-03-12_10h55.58.434,ASS_builder_online,,2025.1.1,None,2026-03-12 10h56.04.920449 +0900,
stimuli/stim_df8_soa0.09.wav,8,0.09,7,7,0,,,,2,0.5690021660120692,None,,,,,,,,0,7,7,9,,,,,222.5568950829911,,,,,,,,,,,,,,,,,,,,,,,,,,,,,,,,,,,,222.5465151249955,222.5568950829911,223.25435450000805,223.33714691666344,227.67317379199085,227.66607237499557,227.66616062499816,227.67317379199085,227.67317379199085,228.24987050000345,2,0.5690021660120692,None,,,,,,,,,,,,,,,,,,,,,,,,,meg,001,2026-03-12_10h55.58.434,ASS_builder_online,,2025.1.1,None,2026-03-12 10h56.04.920449 +0900,
stimuli/stim_df2_soa0.09.wav,2,0.09,8,8,0,,,,1,0.7071138749888632,None,,,,,,,,0,8,8,0,,,,,228.2721232920012,,,,,,,,,,,,,,,,,,,,,,,,,,,,,,,,,,,,228.26261591698858,228.2721232920012,228.97122437501093,229.0543755836591,233.39783008300583,233.3823646249948,233.38242908299435,233.39783008300583,233.39783008300583,234.11730133299716,1,0.7071138749888632,None,,,,,,,,,,,,,,,,,,,,,,,,,meg,001,2026-03-12_10h55.58.434,ASS_builder_online,,2025.1.1,None,2026-03-12 10h56.04.920449 +0900,
stimuli/stim_df4_soa0.09.wav,4,0.09,9,9,0,,,,2,0.9095169990032446,None,,,,,,,,0,9,9,3,,,,,234.13944345799973,,,,,,,,,,,,,,,,,,,,,,,,,,,,,,,,,,,,234.13036025001202,234.13944345799973,234.83784699998796,234.92098649967036,239.26464708300773,239.24884329200722,239.2489186669991,239.26464708300773,239.26464708300773,240.18297612501192,2,0.9095169990032446,None,,,,,,,,,,,,,,,,,,,,,,,,,meg,001,2026-03-12_10h55.58.434,ASS_builder_online,,2025.1.1,None,2026-03-12 10h56.04.920449 +0900,
stimuli/stim_df8_soa0.12.wav,8,0.12,10,10,0,,,,1,0.3900967910012696,None,,,,,,,,0,10,10,10,,,,,240.2050055419968,,,,,,,,,,,,,,,,,,,,,,,,,,,,,,,,,,,,240.19736620801268,240.2050055419968,240.8978860419884,240.98733049966202,246.76380308301304,246.75557487498736,246.7556414169958,246.76380308301304,246.76380308301304,247.16697966700303,1,0.3900967910012696,None,,,,,,,,,,,,,,,,,,,,,,,,,meg,001,2026-03-12_10h55.58.434,ASS_builder_online,,2025.1.1,None,2026-03-12 10h56.04.920449 +0900,
stimuli/stim_df6_soa0.18.wav,6,0.18,11,11,0,,,,2,0.30574237401015125,None,,,,,,,,0,11,11,8,,,,,247.19549079201533,,,,,,,,,,,,,,,,,,,,,,,,,,,,,,,,,,,,247.1888162920077,247.19549079201533,247.88794895799947,247.97127095866406,256.63123875000747,256.6184340000036,256.61850029201014,256.63123875000747,256.63123875000747,256.9396082079911,2,0.30574237401015125,None,,,,,,,,,,,,,,,,,,,,,,,,,meg,001,2026-03-12_10h55.58.434,ASS_builder_online,,2025.1.1,None,2026-03-12 10h56.04.920449 +0900,
stimuli/stim_df10_soa0.09.wav,10,0.09,12,12,0,,,,1,0.43474654099554755,None,,,,,,,,0,12,12,12,,,,,256.96271108300425,,,,,,,,,,,,,,,,,,,,,,,,,,,,,,,,,,,,256.9536410830042,256.96271108300425,257.65325320800184,257.7478722496637,262.083378832991,262.07568158299546,262.07582925001043,262.083378832991,262.083378832991,262.5233732080087,1,0.43474654099554755,None,,,,,,,,,,,,,,,,,,,,,,,,,meg,001,2026-03-12_10h55.58.434,ASS_builder_online,,2025.1.1,None,2026-03-12 10h56.04.920449 +0900,
stimuli/stim_df6_soa0.09.wav,6,0.09,13,13,0,,,,2,0.40889429100207053,None,,,,,,,,0,13,13,6,,,,,262.5445716670074,,,,,,,,,,,,,,,,,,,,,,,,,,,,,,,,,,,,262.5368494580034,262.5445716670074,263.23730095798965,263.33125262466297,267.66708904199186,267.65867095801514,267.6587305419962,267.66708904199186,267.66708904199186,268.08347645800677,2,0.40889429100207053,None,,,,,,,,,,,,,,,,,,,,,,,,,meg,001,2026-03-12_10h55.58.434,ASS_builder_online,,2025.1.1,None,2026-03-12 10h56.04.920449 +0900,
stimuli/stim_df2_soa0.12.wav,2,0.12,14,14,0,,,,1,0.6190357909945305,None,,,,,,,,0,14,14,1,,,,,268.10668558301404,,,,,,,,,,,,,,,,,,,,,,,,,,,,,,,,,,,,268.0996594169992,268.10668558301404,268.8035438329971,268.88750262465715,274.6635747080145,274.6555442500103,274.65561016701395,274.6635747080145,274.6635747080145,275.28930183299235,1,0.6190357909945305,None,,,,,,,,,,,,,,,,,,,,,,,,,meg,001,2026-03-12_10h55.58.434,ASS_builder_online,,2025.1.1,None,2026-03-12 10h56.04.920449 +0900,
stimuli/stim_df10_soa0.18.wav,10,0.18,15,15,0,,,,2,0.6939626239764038,None,,,,,,,,0,15,15,14,,,,,275.31852241701563,,,,,,,,,,,,,,,,,,,,,,,,,,,,,,,,,,,,275.31068533301004,275.31852241701563,276.01394745800644,276.09784370867806,284.75282458300353,284.7453754169983,284.7454530420073,284.75282458300353,284.75282458300353,285.44964887501555,2,0.6939626239764038,None,,,,,,,,,,,,,,,,,,,,,,,,,meg,001,2026-03-12_10h55.58.434,ASS_builder_online,,2025.1.1,None,2026-03-12 10h56.04.920449 +0900,
stimuli/stim_df4_soa0.18.wav,4,0.18,16,16,0,,,,1,0.8926715410198085,None,,,,,,,,0,16,16,5,,,,,285.47912400000496,,,,,,,,,,,,,,,,,,,,,,,,,,,,,,,,,,,,285.470451583009,285.47912400000496,286.1706631249981,286.2542798746765,294.9145904580073,294.9022790000017,294.9023717920063,294.9145904580073,294.9145904580073,295.816714332992,1,0.8926715410198085,None,,,,,,,,,,,,,,,,,,,,,,,,,meg,001,2026-03-12_10h55.58.434,ASS_builder_online,,2025.1.1,None,2026-03-12 10h56.04.920449 +0900,
stimuli/stim_df12_soa0.18.wav,12,0.18,17,17,0,,,,1,0.9205948739836458,None,,,,,,,,0,17,17,17,,,,,295.84461562501383,,,,,,,,,,,,,,,,,,,,,,,,,,,,,,,,,,,,295.8361738329986,295.84461562501383,296.5379353330063,296.6208179166754,305.2811667500064,305.2679452080047,305.26800479201484,305.2811667500064,305.2811667500064,306.20650891700643,1,0.9205948739836458,None,,,,,,,,,,,,,,,,,,,,,,,,,meg,001,2026-03-12_10h55.58.434,ASS_builder_online,,2025.1.1,None,2026-03-12 10h56.04.920449 +0900,
stimuli/stim_df12_soa0.09.wav,12,0.09,18,0,1,,,,1,0.828456791001372,None,,,,,,,,1,0,18,15,,,,,306.2283822919999,,,,,,,,,,,,,,,,,,,,,,,,,,,,,,,,,,,,306.21903120799107,306.2283822919999,306.91994324998814,307.01448787466893,311.348797499988,311.3413187499973,311.3413939170132,311.348797499988,311.348797499988,312.1828817499918,1,0.828456791001372,None,,,,,,,,,,,,,,,,,,,,,,,,,meg,001,2026-03-12_10h55.58.434,ASS_builder_online,,2025.1.1,None,2026-03-12 10h56.04.920449 +0900,
stimuli/stim_df4_soa0.12.wav,4,0.12,19,1,1,,,,2,0.7275389569986146,None,,,,,,,,1,1,19,4,,,,,312.20594987500226,,,,,,,,,,,,,,,,,,,,,,,,,,,,,,,,,,,,312.19724375000806,312.20594987500226,312.90376979199937,312.9871336666731,318.76309416699223,318.7554166250047,318.755522958003,318.76309416699223,318.76309416699223,319.50026229201467,2,0.7275389569986146,None,,,,,,,,,,,,,,,,,,,,,,,,,meg,001,2026-03-12_10h55.58.434,ASS_builder_online,,2025.1.1,None,2026-03-12 10h56.04.920449 +0900,
stimuli/stim_df4_soa0.18.wav,4,0.18,20,2,1,,,,1,0.6330766239843797,None,,,,,,,,1,2,20,5,,,,,319.52779520800686,,,,,,,,,,,,,,,,,,,,,,,,,,,,,,,,,,,,319.52080012499937,319.52779520800686,320.2203908750089,320.3042922496718,328.96461266701226,328.9517394579889,328.9518280829943,328.96461266701226,328.96461266701226,329.60592666699085,1,0.6330766239843797,None,,,,,,,,,,,,,,,,,,,,,,,,,meg,001,2026-03-12_10h55.58.434,ASS_builder_online,,2025.1.1,None,2026-03-12 10h56.04.920449 +0900,
stimuli/stim_df2_soa0.12.wav,2,0.12,21,3,1,,,,2,0.5154183749982622,None,,,,,,,,1,3,21,1,,,,,329.62767033299315,,,,,,,,,,,,,,,,,,,,,,,,,,,,,,,,,,,,329.6204674170003,329.62767033299315,330.3212655420066,330.41459437465915,336.19796083300025,336.18263670799206,336.1826952919946,336.19796083300025,336.19796083300025,336.7160415420076,2,0.5154183749982622,None,,,,,,,,,,,,,,,,,,,,,,,,,meg,001,2026-03-12_10h55.58.434,ASS_builder_online,,2025.1.1,None,2026-03-12 10h56.04.920449 +0900,
stimuli/stim_df8_soa0.12.wav,8,0.12,22,4,1,,,,1,0.6144985410210211,None,,,,,,,,1,4,22,10,,,,,336.7402307500015,,,,,,,,,,,,,,,,,,,,,,,,,,,,,,,,,,,,336.73057891699136,336.7402307500015,337.4367250420037,337.5207954586697,343.2966709579923,343.2890373330156,343.2890929580026,343.2966709579923,343.2966709579923,343.916124957992,1,0.6144985410210211,None,,,,,,,,,,,,,,,,,,,,,,,,,meg,001,2026-03-12_10h55.58.434,ASS_builder_online,,2025.1.1,None,2026-03-12 10h56.04.920449 +0900,
stimuli/stim_df4_soa0.09.wav,4,0.09,23,5,1,,,,1,0.8242117080080789,None,,,,,,,,1,5,23,3,,,,,343.9387034579995,,,,,,,,,,,,,,,,,,,,,,,,,,,,,,,,,,,,343.92839716700837,343.9387034579995,344.6313197920099,344.7212551666637,349.06402570800856,349.0491247079917,349.0491947499977,349.06402570800856,349.06402570800856,349.900477416988,1,0.8242117080080789,None,,,,,,,,,,,,,,,,,,,,,,,,,meg,001,2026-03-12_10h55.58.434,ASS_builder_online,,2025.1.1,None,2026-03-12 10h56.04.920449 +0900,
stimuli/stim_df12_soa0.18.wav,12,0.18,24,6,1,,,,1,0.7117642909870483,None,,,,,,,,1,6,24,17,,,,,349.9284640419937,,,,,,,,,,,,,,,,,,,,,,,,,,,,,,,,,,,,349.92041774999234,349.9284640419937,350.62113904199214,350.7039754586624,359.36459170799935,359.3520370830083,359.35211616699235,359.36459170799935,359.36459170799935,360.08264400000917,1,0.7117642909870483,None,,,,,,,,,,,,,,,,,,,,,,,,,meg,001,2026-03-12_10h55.58.434,ASS_builder_online,,2025.1.1,None,2026-03-12 10h56.04.920449 +0900,
stimuli/stim_df6_soa0.09.wav,6,0.09,25,7,1,,,,2,0.76437579098274,None,,,,,,,,1,7,25,6,,,,,360.104029582988,,,,,,,,,,,,,,,,,,,,,,,,,,,,,,,,,,,,360.09442050001235,360.104029582988,360.79782945799525,360.8870746666546,365.23082537500886,365.21561995800585,365.21568354198826,365.23082537500886,365.23082537500886,365.999410791992,2,0.76437579098274,None,,,,,,,,,,,,,,,,,,,,,,,,,meg,001,2026-03-12_10h55.58.434,ASS_builder_online,,2025.1.1,None,2026-03-12 10h56.04.920449 +0900,
stimuli/stim_df8_soa0.09.wav,8,0.09,26,8,1,,,,1,1.7290925410052296,None,,,,,,,,1,8,26,9,,,,,366.0204688750091,,,,,,,,,,,,,,,,,,,,,,,,,,,,,,,,,,,,366.01079504200607,366.0204688750091,366.71449495799607,366.8040989586773,371.1397688750003,371.132572292001,371.1326641670021,371.1397688750003,371.1397688750003,372.8725902920123,1,1.7290925410052296,None,,,,,,,,,,,,,,,,,,,,,,,,,meg,001,2026-03-12_10h55.58.434,ASS_builder_online,,2025.1.1,None,2026-03-12 10h56.04.920449 +0900,
stimuli/stim_df2_soa0.09.wav,2,0.09,27,9,1,,,,2,0.2277960829960648,None,,,,,,,,1,9,27,0,,,,,372.8952487919887,,,,,,,,,,,,,,,,,,,,,,,,,,,,,,,,,,,,372.8860184579971,372.8952487919887,373.58779129199684,373.6813169586569,378.0309234170127,378.00849899998866,378.0085792920145,378.0309234170127,378.0309234170127,378.26664399998845,2,0.2277960829960648,None,,,,,,,,,,,,,,,,,,,,,,,,,meg,001,2026-03-12_10h55.58.434,ASS_builder_online,,2025.1.1,None,2026-03-12 10h56.04.920449 +0900,
stimuli/stim_df6_soa0.18.wav,6,0.18,28,10,1,,,,1,0.3597270830068737,None,,,,,,,,1,10,28,8,,,,,378.29523854199215,,,,,,,,,,,,,,,,,,,,,,,,,,,,,,,,,,,,378.28814016698743,378.29523854199215,378.987258417008,379.0710113746793,387.7315979170089,387.71954583300976,387.71962141699623,387.7315979170089,387.7315979170089,388.10048133300734,1,0.3597270830068737,None,,,,,,,,,,,,,,,,,,,,,,,,,meg,001,2026-03-12_10h55.58.434,ASS_builder_online,,2025.1.1,None,2026-03-12 10h56.04.920449 +0900,
stimuli/stim_df8_soa0.18.wav,8,0.18,29,11,1,,,,1,0.48612995800795034,None,,,,,,,,1,11,29,11,,,,,388.1288784999924,,,,,,,,,,,,,,,,,,,,,,,,,,,,,,,,,,,,388.12191833299585,388.1288784999924,388.8200397079927,388.90398762465725,397.5645745419897,397.5516094999912,397.55167499999516,397.5645745419897,397.5645745419897,398.05588620799244,1,0.48612995800795034,None,,,,,,,,,,,,,,,,,,,,,,,,,meg,001,2026-03-12_10h55.58.434,ASS_builder_online,,2025.1.1,None,2026-03-12 10h56.04.920449 +0900,
stimuli/stim_df2_soa0.18.wav,2,0.18,30,12,1,,,,1,0.30137654099962674,None,,,,,,,,1,12,30,2,,,,,398.08736133298953,,,,,,,,,,,,,,,,,,,,,,,,,,,,,,,,,,,,398.0780840830121,398.08736133298953,398.78117420800845,398.8645184996751,407.51893379198737,407.51223862500046,407.51229729200713,407.51893379198737,407.51893379198737,407.82253595799557,1,0.30137654099962674,None,,,,,,,,,,,,,,,,,,,,,,,,,meg,001,2026-03-12_10h55.58.434,ASS_builder_online,,2025.1.1,None,2026-03-12 10h56.04.920449 +0900,
stimuli/stim_df10_soa0.18.wav,10,0.18,31,13,1,,,,2,0.32583224997506477,None,,,,,,,,1,13,31,14,,,,,407.8521649170143,,,,,,,,,,,,,,,,,,,,,,,,,,,,,,,,,,,,407.84468624999863,407.8521649170143,408.54693504198804,408.621909166661,417.2810812079988,417.2686399999948,417.2687050419918,417.2810812079988,417.2810812079988,417.61628095799824,2,0.32583224997506477,None,,,,,,,,,,,,,,,,,,,,,,,,,meg,001,2026-03-12_10h55.58.434,ASS_builder_online,,2025.1.1,None,2026-03-12 10h56.04.920449 +0900,
stimuli/stim_df6_soa0.12.wav,6,0.12,32,14,1,,,,1,0.29371820797678083,None,,,,,,,,1,14,32,7,,,,,417.64075354201486,,,,,,,,,,,,,,,,,,,,,,,,,,,,,,,,,,,,417.6313108750037,417.64075354201486,418.33685541700106,418.4200608746653,424.19715745799476,424.1881679999933,424.1882562499959,424.19715745799476,424.19715745799476,424.4998327080102,1,0.29371820797678083,None,,,,,,,,,,,,,,,,,,,,,,,,,meg,001,2026-03-12_10h55.58.434,ASS_builder_online,,2025.1.1,None,2026-03-12 10h56.04.920449 +0900,
stimuli/stim_df10_soa0.09.wav,10,0.09,33,15,1,,,,1,0.5360193749947939,None,,,,,,,,1,15,33,12,,,,,424.5199225420074,,,,,,,,,,,,,,,,,,,,,,,,,,,,,,,,,,,,424.51088062499184,424.5199225420074,425.2144415829971,425.3039816666608,429.6403400420095,429.6329222499917,429.63300291699125,429.6403400420095,429.6403400420095,430.18292566700256,1,0.5360193749947939,None,,,,,,,,,,,,,,,,,,,,,,,,,meg,001,2026-03-12_10h55.58.434,ASS_builder_online,,2025.1.1,None,2026-03-12 10h56.04.920449 +0900,
stimuli/stim_df10_soa0.12.wav,10,0.12,34,16,1,,,,2,0.5735874160018284,None,,,,,,,,1,16,34,13,,,,,430.20684679198894,,,,,,,,,,,,,,,,,,,,,,,,,,,,,,,,,,,,430.1975653330155,430.20684679198894,430.9035534170107,430.987403249663,436.7638597500045,436.7550518749922,436.7551337920013,436.7638597500045,436.7638597500045,437.3397279579949,2,0.5735874160018284,None,,,,,,,,,,,,,,,,,,,,,,,,,meg,001,2026-03-12_10h55.58.434,ASS_builder_online,,2025.1.1,None,2026-03-12 10h56.04.920449 +0900,
stimuli/stim_df12_soa0.12.wav,12,0.12,35,17,1,,,,2,0.614711707981769,None,,,,,,,,1,17,35,16,,,,,437.3647967920115,,,,,,,,,,,,,,,,,,,,,,,,,,,,,,,,,,,,437.3561886670068,437.3647967920115,438.0545109169907,438.14788445865656,443.92284029201255,443.91576637499384,443.9158509580011,443.92284029201255,443.92284029201255,444.5398119169986,2,0.614711707981769,None,,,,,,,,,,,,,,,,,,,,,,,,,meg,001,2026-03-12_10h55.58.434,ASS_builder_online,,2025.1.1,None,2026-03-12 10h56.04.920449 +0900,
stimuli/stim_df6_soa0.12.wav,6,0.12,36,0,2,,,,1,0.3197388740081806,None,,,,,,,,2,0,36,7,,,,,444.5654723329935,,,,,,,,,,,,,,,,,,,,,,,,,,,,,,,,,,,,444.555722582998,444.5654723329935,445.2645760420128,445.34788579168185,451.1314453330124,451.1157949999906,451.11584737501107,451.1314453330124,451.1314453330124,451.456820041989,1,0.3197388740081806,None,,,,,,,,,,,,,,,,,,,,,,,,,meg,001,2026-03-12_10h55.58.434,ASS_builder_online,,2025.1.1,None,2026-03-12 10h56.04.920449 +0900,
stimuli/stim_df4_soa0.18.wav,4,0.18,37,1,2,,,,2,0.44816299999365583,None,,,,,,,,2,1,37,5,,,,,451.48510600000736,,,,,,,,,,,,,,,,,,,,,,,,,,,,,,,,,,,,451.477645750012,451.48510600000736,452.18164295799215,452.2645419586663,460.9190139579878,460.91210099999444,460.9121645000123,460.9190139579878,460.9190139579878,461.37268983299145,2,0.44816299999365583,None,,,,,,,,,,,,,,,,,,,,,,,,,meg,001,2026-03-12_10h55.58.434,ASS_builder_online,,2025.1.1,None,2026-03-12 10h56.04.920449 +0900,
stimuli/stim_df4_soa0.12.wav,4,0.12,38,2,2,,,,1,0.3202522080100607,None,,,,,,,,2,2,38,4,,,,,461.39936404200853,,,,,,,,,,,,,,,,,,,,,,,,,,,,,,,,,,,,461.39006041700486,461.39936404200853,462.09747158299433,462.18119104166203,467.9646287499927,467.94919129199116,467.94927279200056,467.9646287499927,467.9646287499927,468.2898550830141,1,0.3202522080100607,None,,,,,,,,,,,,,,,,,,,,,,,,,meg,001,2026-03-12_10h55.58.434,ASS_builder_online,,2025.1.1,None,2026-03-12 10h56.04.920449 +0900,
stimuli/stim_df12_soa0.09.wav,12,0.09,39,3,2,,,,1,0.5558771660143975,None,,,,,,,,2,3,39,15,,,,,468.31186024998897,,,,,,,,,,,,,,,,,,,,,,,,,,,,,,,,,,,,468.3037145829876,468.31186024998897,469.00321441699634,469.09791191667705,473.4335916250129,473.42571216699434,473.42577362500015,473.4335916250129,473.4335916250129,473.99983366701053,1,0.5558771660143975,None,,,,,,,,,,,,,,,,,,,,,,,,,meg,001,2026-03-12_10h55.58.434,ASS_builder_online,,2025.1.1,None,2026-03-12 10h56.04.920449 +0900,
stimuli/stim_df4_soa0.09.wav,4,0.09,40,4,2,,,,2,0.4548422080115415,None,,,,,,,,2,4,40,3,,,,,474.0230752500065,,,,,,,,,,,,,,,,,,,,,,,,,,,,,,,,,,,,474.0127426669933,474.0230752500065,474.72131749999244,474.8043439996584,479.1477625420084,479.13232633299776,479.1323792079929,479.1477625420084,479.1477625420084,479.6058869170083,2,0.4548422080115415,None,,,,,,,,,,,,,,,,,,,,,,,,,meg,001,2026-03-12_10h55.58.434,ASS_builder_online,,2025.1.1,None,2026-03-12 10h56.04.920449 +0900,
stimuli/stim_df2_soa0.18.wav,2,0.18,41,5,2,,,,1,1.3647004989907146,None,,,,,,,,2,5,41,2,,,,,479.63552608300233,,,,,,,,,,,,,,,,,,,,,,,,,,,,,,,,,,,,479.6276422080118,479.63552608300233,480.33115033298964,480.41468599965833,489.069205125008,489.0622511249967,489.06231612499687,489.069205125008,489.069205125008,490.43962641700637,1,1.3647004989907146,None,,,,,,,,,,,,,,,,,,,,,,,,,meg,001,2026-03-12_10h55.58.434,ASS_builder_online,,2025.1.1,None,2026-03-12 10h56.04.920449 +0900,
stimuli/stim_df8_soa0.18.wav,8,0.18,42,6,2,,,,1,0.5504960830148775,None,,,,,,,,2,6,42,11,,,,,490.46829158300534,,,,,,,,,,,,,,,,,,,,,,,,,,,,,,,,,,,,490.4610202499898,490.46829158300534,491.1644922080159,491.2479017086773,499.9028902919963,499.8957815830072,499.8958776250074,499.9028902919963,499.9028902919963,500.45664099999703,1,0.5504960830148775,None,,,,,,,,,,,,,,,,,,,,,,,,,meg,001,2026-03-12_10h55.58.434,ASS_builder_online,,2025.1.1,None,2026-03-12 10h56.04.920449 +0900,
stimuli/stim_df10_soa0.12.wav,10,0.12,43,7,2,,,,2,0.625286498980131,None,,,,,,,,2,7,43,13,,,,,500.4813700829982,,,,,,,,,,,,,,,,,,,,,,,,,,,,,,,,,,,,500.4734322919976,500.4813700829982,501.1706113750115,501.26434958365667,507.0396778330032,507.0319716249942,507.03207695801393,507.0396778330032,507.0396778330032,507.67384829200455,2,0.625286498980131,None,,,,,,,,,,,,,,,,,,,,,,,,,meg,001,2026-03-12_10h55.58.434,ASS_builder_online,,2025.1.1,None,2026-03-12 10h56.04.920449 +0900,
stimuli/stim_df2_soa0.09.wav,2,0.09,44,8,2,,,,1,0.9207872500119265,None,,,,,,,,2,8,44,0,,,,,507.69550900001195,,,,,,,,,,,,,,,,,,,,,,,,,,,,,,,,,,,,507.68851729200105,507.69550900001195,508.38670412500505,508.48091912467885,512.8166419999907,512.8091639580089,512.8092206250003,512.8166419999907,512.8166419999907,513.7402182079968,1,0.9207872500119265,None,,,,,,,,,,,,,,,,,,,,,,,,,meg,001,2026-03-12_10h55.58.434,ASS_builder_online,,2025.1.1,None,2026-03-12 10h56.04.920449 +0900,
stimuli/stim_df6_soa0.09.wav,6,0.09,45,9,2,,,,2,0.7667942489788402,None,,,,,,,,2,9,45,6,,,,,513.7632963329961,,,,,,,,,,,,,,,,,,,,,,,,,,,,,,,,,,,,513.7542164580082,513.7632963329961,514.4535054579901,514.5472682496804,518.8833473749983,518.875371083006,518.875435916998,518.8833473749983,518.8833473749983,519.6558298330056,2,0.7667942489788402,None,,,,,,,,,,,,,,,,,,,,,,,,,meg,001,2026-03-12_10h55.58.434,ASS_builder_online,,2025.1.1,None,2026-03-12 10h56.04.920449 +0900,
stimuli/stim_df12_soa0.18.wav,12,0.18,46,10,2,,,,1,0.34554341598413885,None,,,,,,,,2,10,46,17,,,,,519.6869282920088,,,,,,,,,,,,,,,,,,,,,,,,,,,,,,,,,,,,519.6780427499907,519.6869282920088,520.3811563749914,520.4645067916756,529.1194430420001,529.112227708014,529.1122895000153,529.1194430420001,529.1194430420001,529.4723523329885,1,0.34554341598413885,None,,,,,,,,,,,,,,,,,,,,,,,,,meg,001,2026-03-12_10h55.58.434,ASS_builder_online,,2025.1.1,None,2026-03-12 10h56.04.920449 +0900,
stimuli/stim_df6_soa0.18.wav,6,0.18,47,11,2,,,,2,0.8899902910052333,None,,,,,,,,2,11,47,8,,,,,529.5034042079933,,,,,,,,,,,,,,,,,,,,,,,,,,,,,,,,,,,,529.4946259999997,529.5034042079933,530.1979881669977,530.281207458673,538.9369747079909,538.9293020830082,538.9294043749978,538.9369747079909,538.9369747079909,539.8326786670077,2,0.8899902910052333,None,,,,,,,,,,,,,,,,,,,,,,,,,meg,001,2026-03-12_10h55.58.434,ASS_builder_online,,2025.1.1,None,2026-03-12 10h56.04.920449 +0900,
stimuli/stim_df8_soa0.09.wav,8,0.09,48,12,2,,,,1,0.5420529579860158,None,,,,,,,,2,12,48,9,,,,,539.8558579999954,,,,,,,,,,,,,,,,,,,,,,,,,,,,,,,,,,,,539.8454914999893,539.8558579999954,540.5537012080022,540.6373246246696,544.9733774579945,544.9659160829906,544.9660112920101,544.9733774579945,544.9733774579945,545.5232343749958,1,0.5420529579860158,None,,,,,,,,,,,,,,,,,,,,,,,,,meg,001,2026-03-12_10h55.58.434,ASS_builder_online,,2025.1.1,None,2026-03-12 10h56.04.920449 +0900,
stimuli/stim_df10_soa0.09.wav,10,0.09,49,13,2,,,,2,0.2932925829954911,None,,,,,,,,2,13,49,12,,,,,545.5477207080112,,,,,,,,,,,,,,,,,,,,,,,,,,,,,,,,,,,,545.5371102500067,545.5477207080112,546.237440708006,546.3312028336552,550.6666633329878,550.6590194999881,550.6590977919986,550.6666633329878,550.6666633329878,550.9661975420022,2,0.2932925829954911,None,,,,,,,,,,,,,,,,,,,,,,,,,meg,001,2026-03-12_10h55.58.434,ASS_builder_online,,2025.1.1,None,2026-03-12 10h56.04.920449 +0900,
stimuli/stim_df12_soa0.12.wav,12,0.12,50,14,2,,,,1,0.5896921660169028,None,,,,,,,,2,14,50,16,,,,,550.9901410420134,,,,,,,,,,,,,,,,,,,,,,,,,,,,,,,,,,,,550.9808698330016,550.9901410420134,551.6875923750049,551.7708642496766,557.5473036250041,557.5389587499958,557.539023166988,557.5473036250041,557.5473036250041,558.1392101249949,1,0.5896921660169028,None,,,,,,,,,,,,,,,,,,,,,,,,,meg,001,2026-03-12_10h55.58.434,ASS_builder_online,,2025.1.1,None,2026-03-12 10h56.04.920449 +0900,
stimuli/stim_df10_soa0.18.wav,10,0.18,51,15,2,,,,2,0.8066979990107939,None,,,,,,,,2,15,51,14,,,,,558.1684773750021,,,,,,,,,,,,,,,,,,,,,,,,,,,,,,,,,,,,558.161159500014,558.1684773750021,558.8638793329883,558.9473079166821,567.602357374999,567.5951385830122,567.5952099999995,567.602357374999,567.602357374999,568.4161835830018,2,0.8066979990107939,None,,,,,,,,,,,,,,,,,,,,,,,,,meg,001,2026-03-12_10h55.58.434,ASS_builder_online,,2025.1.1,None,2026-03-12 10h56.04.920449 +0900,
stimuli/stim_df2_soa0.12.wav,2,0.12,52,16,2,,,,1,0.6835236659971997,None,,,,,,,,2,16,52,1,,,,,568.4397495000158,,,,,,,,,,,,,,,,,,,,,,,,,,,,,,,,,,,,568.4318552500044,568.4397495000158,569.1370127499977,569.2206045416572,574.9970055000158,574.9887485830113,574.9888224999886,574.9970055000158,574.9970055000158,575.6893596670125,1,0.6835236659971997,None,,,,,,,,,,,,,,,,,,,,,,,,,meg,001,2026-03-12_10h55.58.434,ASS_builder_online,,2025.1.1,None,2026-03-12 10h56.04.920449 +0900,
stimuli/stim_df8_soa0.12.wav,8,0.12,53,17,2,,,,1,0.358540457993513,None,,,,,,,,2,17,53,10,,,,,575.7141554169939,,,,,,,,,,,,,,,,,,,,,,,,,,,,,,,,,,,,575.7061304580129,575.7141554169939,576.4042026250099,576.4972441246539,582.2730746250018,582.2657271249918,582.2658282500051,582.2730746250018,582.2730746250018,582.6397401250142,1,0.358540457993513,None,,,,,,,,,,,,,,,,,,,,,,,,,meg,001,2026-03-12_10h55.58.434,ASS_builder_online,,2025.1.1,None,2026-03-12 10h56.04.920449 +0900,
stimuli/stim_df12_soa0.12.wav,12,0.12,54,0,3,,,,2,0.9793257489800453,None,,,,,,,,3,0,54,16,,,,,582.6642815000087,,,,,,,,,,,,,,,,,,,,,,,,,,,,,,,,,,,,582.654156500008,582.6642815000087,583.3541567499924,583.448003333677,589.2312887920125,589.215711375,589.2157677919895,589.2312887920125,589.2312887920125,590.2159645830106,2,0.9793257489800453,None,,,,,,,,,,,,,,,,,,,,,,,,,meg,001,2026-03-12_10h55.58.434,ASS_builder_online,,2025.1.1,None,2026-03-12 10h56.04.920449 +0900,
stimuli/stim_df10_soa0.12.wav,10,0.12,55,1,3,,,,1,0.3277671249816194,None,,,,,,,,3,1,55,13,,,,,590.239328583004,,,,,,,,,,,,,,,,,,,,,,,,,,,,,,,,,,,,590.2303626670036,590.239328583004,590.9373114999908,591.0205902086784,596.7964439580101,596.7888887500158,596.7889924170158,596.7964439580101,596.7964439580101,597.132216500002,1,0.3277671249816194,None,,,,,,,,,,,,,,,,,,,,,,,,,meg,001,2026-03-12_10h55.58.434,ASS_builder_online,,2025.1.1,None,2026-03-12 10h56.04.920449 +0900,
stimuli/stim_df8_soa0.18.wav,8,0.18,56,2,3,,,,2,0.6324947910034098,None,,,,,,,,3,2,56,11,,,,,597.158595417015,,,,,,,,,,,,,,,,,,,,,,,,,,,,,,,,,,,,597.1503816670156,597.158595417015,597.8531717919977,597.9376072496564,606.5978414170095,606.5855897919973,606.5856692079979,606.5978414170095,606.5978414170095,607.2393858330033,2,0.6324947910034098,None,,,,,,,,,,,,,,,,,,,,,,,,,meg,001,2026-03-12_10h55.58.434,ASS_builder_online,,2025.1.1,None,2026-03-12 10h56.04.920449 +0900,
stimuli/stim_df12_soa0.18.wav,12,0.18,57,3,3,,,,1,0.4475085829908494,None,,,,,,,,3,3,57,17,,,,,607.2677666250092,,,,,,,,,,,,,,,,,,,,,,,,,,,,,,,,,,,,607.2605200830149,607.2677666250092,607.9644979579898,608.0479074586804,616.7030685420032,616.6956881670048,616.6957721250074,616.7030685420032,616.7030685420032,617.1561587920005,1,0.4475085829908494,None,,,,,,,,,,,,,,,,,,,,,,,,,meg,001,2026-03-12_10h55.58.434,ASS_builder_online,,2025.1.1,None,2026-03-12 10h56.04.920449 +0900,
stimuli/stim_df4_soa0.18.wav,4,0.18,58,4,3,,,,1,0.6925599999958649,None,,,,,,,,3,4,58,5,,,,,617.184463542013,,,,,,,,,,,,,,,,,,,,,,,,,,,,,,,,,,,,617.1773296669999,617.184463542013,617.8811178329925,617.9645799996545,626.619446458004,626.6121189169935,626.6122078330081,626.619446458004,626.619446458004,627.3163070830051,1,0.6925599999958649,None,,,,,,,,,,,,,,,,,,,,,,,,,meg,001,2026-03-12_10h55.58.434,ASS_builder_online,,2025.1.1,None,2026-03-12 10h56.04.920449 +0900,
stimuli/stim_df2_soa0.12.wav,2,0.12,59,5,3,,,,2,0.4747748739900999,None,,,,,,,,3,5,59,1,,,,,627.3390234170074,,,,,,,,,,,,,,,,,,,,,,,,,,,,,,,,,,,,627.3305039580155,627.3390234170074,628.0379064579902,628.1205596246621,633.8971615830087,633.8874656250118,633.8875354579941,633.8971615830087,633.8971615830087,634.383866499993,2,0.4747748739900999,None,,,,,,,,,,,,,,,,,,,,,,,,,meg,001,2026-03-12_10h55.58.434,ASS_builder_online,,2025.1.1,None,2026-03-12 10h56.04.920449 +0900,
stimuli/stim_df2_soa0.09.wav,2,0.09,60,6,3,,,,2,0.3618539999879431,None,,,,,,,,3,6,60,0,,,,,634.4049661250028,,,,,,,,,,,,,,,,,,,,,,,,,,,,,,,,,,,,634.3954268750094,634.4049661250028,635.0975646669976,635.1873454586641,639.5222420420032,639.5148765420017,639.5149642080069,639.5222420420032,639.5222420420032,639.8901545830013,2,0.3618539999879431,None,,,,,,,,,,,,,,,,,,,,,,,,,meg,001,2026-03-12_10h55.58.434,ASS_builder_online,,2025.1.1,None,2026-03-12 10h56.04.920449 +0900,
stimuli/stim_df6_soa0.18.wav,6,0.18,61,7,3,,,,1,0.41961758298566565,None,,,,,,,,3,7,61,8,,,,,639.9201872080157,,,,,,,,,,,,,,,,,,,,,,,,,,,,,,,,,,,,639.911128000007,639.9201872080157,640.6145057500107,640.697765708672,649.354448958009,649.3460194999934,649.3461014580098,649.354448958009,649.354448958009,649.783089583012,1,0.41961758298566565,None,,,,,,,,,,,,,,,,,,,,,,,,,meg,001,2026-03-12_10h55.58.434,ASS_builder_online,,2025.1.1,None,2026-03-12 10h56.04.920449 +0900,
stimuli/stim_df10_soa0.09.wav,10,0.09,62,8,3,,,,2,0.578371125011472,None,,,,,,,,3,8,62,12,,,,,649.8030353749928,,,,,,,,,,,,,,,,,,,,,,,,,,,,,,,,,,,,649.7943045420107,649.8030353749928,650.4978312920139,650.5866862086734,654.9217927920108,654.9149167079886,654.914978832996,654.9217927920108,654.9217927920108,655.5060334170121,2,0.578371125011472,None,,,,,,,,,,,,,,,,,,,,,,,,,meg,001,2026-03-12_10h55.58.434,ASS_builder_online,,2025.1.1,None,2026-03-12 10h56.04.920449 +0900,
stimuli/stim_df2_soa0.18.wav,2,0.18,63,9,3,,,,1,0.4297518749954179,None,,,,,,,,3,9,63,2,,,,,655.5344420000038,,,,,,,,,,,,,,,,,,,,,,,,,,,,,,,,,,,,655.5271360420156,655.5344420000038,656.2311655830126,656.3145359996745,664.9696192920092,664.9622057499946,664.9622865419951,664.9696192920092,664.9696192920092,665.4071744999965,1,0.4297518749954179,None,,,,,,,,,,,,,,,,,,,,,,,,,meg,001,2026-03-12_10h55.58.434,ASS_builder_online,,2025.1.1,None,2026-03-12 10h56.04.920449 +0900,
stimuli/stim_df10_soa0.18.wav,10,0.18,64,10,3,,,,1,0.3440633330028504,None,,,,,,,,3,10,64,14,,,,,665.4352769170073,,,,,,,,,,,,,,,,,,,,,,,,,,,,,,,,,,,,665.4282872920157,665.4352769170073,666.1313260419993,666.2145099996744,674.8689464580093,674.8619122499949,674.8619808749936,674.8689464580093,674.8689464580093,675.2164141249959,1,0.3440633330028504,None,,,,,,,,,,,,,,,,,,,,,,,,,meg,001,2026-03-12_10h55.58.434,ASS_builder_online,,2025.1.1,None,2026-03-12 10h56.04.920449 +0900,
stimuli/stim_df8_soa0.09.wav,8,0.09,65,11,3,,,,2,0.8571665409835987,None,,,,,,,,3,11,65,9,,,,,675.2375194579945,,,,,,,,,,,,,,,,,,,,,,,,,,,,,,,,,,,,675.2278311249975,675.2375194579945,675.9305891249969,676.0198863336739,680.3551453750115,680.3483183750068,680.3483976669959,680.3551453750115,680.3551453750115,681.2158076670021,2,0.8571665409835987,None,,,,,,,,,,,,,,,,,,,,,,,,,meg,001,2026-03-12_10h55.58.434,ASS_builder_online,,2025.1.1,None,2026-03-12 10h56.04.920449 +0900,
stimuli/stim_df4_soa0.12.wav,4,0.12,66,12,3,,,,1,0.49309995700605214,None,,,,,,,,3,12,66,4,,,,,681.238594333001,,,,,,,,,,,,,,,,,,,,,,,,,,,,,,,,,,,,681.229960333003,681.238594333001,681.9311902500049,682.0205351666702,687.7971062500146,687.7883517500013,687.7884201669949,687.7971062500146,687.7971062500146,688.2998017079954,1,0.49309995700605214,None,,,,,,,,,,,,,,,,,,,,,,,,,meg,001,2026-03-12_10h55.58.434,ASS_builder_online,,2025.1.1,None,2026-03-12 10h56.04.920449 +0900,
stimuli/stim_df12_soa0.09.wav,12,0.09,67,13,3,,,,2,0.573612874984974,None,,,,,,,,3,13,67,15,,,,,688.3185144999879,,,,,,,,,,,,,,,,,,,,,,,,,,,,,,,,,,,,688.310663332988,688.3185144999879,689.014328958001,689.1040271666755,693.4397207500006,693.4324072920135,693.4324737080024,693.4397207500006,693.4397207500006,694.0162132919941,2,0.573612874984974,None,,,,,,,,,,,,,,,,,,,,,,,,,meg,001,2026-03-12_10h55.58.434,ASS_builder_online,,2025.1.1,None,2026-03-12 10h56.04.920449 +0900,
stimuli/stim_df8_soa0.12.wav,8,0.12,68,14,3,,,,2,0.6417593329970259,None,,,,,,,,3,14,68,10,,,,,694.0413140419987,,,,,,,,,,,,,,,,,,,,,,,,,,,,,,,,,,,,694.0315407919989,694.0413140419987,694.7367968749895,694.8210123336796,700.5961878329981,700.5890307500085,700.5890938329976,700.5961878329981,700.5961878329981,701.2502268330136,2,0.6417593329970259,None,,,,,,,,,,,,,,,,,,,,,,,,,meg,001,2026-03-12_10h55.58.434,ASS_builder_online,,2025.1.1,None,2026-03-12 10h56.04.920449 +0900,
stimuli/stim_df6_soa0.12.wav,6,0.12,69,15,3,,,,1,0.47527416597586125,None,,,,,,,,3,15,69,7,,,,,701.274198375002,,,,,,,,,,,,,,,,,,,,,,,,,,,,,,,,,,,,701.2644105830113,701.274198375002,701.9699418749951,702.0534094996731,707.8305327919952,707.8218319170119,707.8218930829898,707.8305327919952,707.8305327919952,708.3163931670133,1,0.47527416597586125,None,,,,,,,,,,,,,,,,,,,,,,,,,meg,001,2026-03-12_10h55.58.434,ASS_builder_online,,2025.1.1,None,2026-03-12 10h56.04.920449 +0900,
stimuli/stim_df6_soa0.09.wav,6,0.09,70,16,3,,,,1,0.4560776239959523,None,,,,,,,,3,16,70,6,,,,,708.3375673330156,,,,,,,,,,,,,,,,,,,,,,,,,,,,,,,,,,,,708.3281232920126,708.3375673330156,709.0305452499888,709.1202436246715,713.4558448749885,713.448552582995,713.4486428330129,713.4558448749885,713.4558448749885,713.9159388330008,1,0.4560776239959523,None,,,,,,,,,,,,,,,,,,,,,,,,,meg,001,2026-03-12_10h55.58.434,ASS_builder_online,,2025.1.1,None,2026-03-12 10h56.04.920449 +0900,
stimuli/stim_df4_soa0.09.wav,4,0.09,71,17,3,,,,1,0.29763133300002664,None,,,,,,,,3,17,71,3,,,,,713.9376239170088,,,,,,,,,,,,,,,,,,,,,,,,,,,,,,,,,,,,713.9275710830116,713.9376239170088,714.6312375830021,714.7207114996602,719.056776042009,719.049288625014,719.0493933749967,719.056776042009,719.056776042009,719.3568127499893,1,0.29763133300002664,None,,,,,,,,,,,,,,,,,,,,,,,,,meg,001,2026-03-12_10h55.58.434,ASS_builder_online,,2025.1.1,None,2026-03-12 10h56.04.920449 +0900,
stimuli/stim_df12_soa0.12.wav,12,0.12,72,0,4,,,,2,0.3960586239991244,None,,,,,,,,4,0,72,16,,,,,719.3807372080046,,,,,,,,,,,,,,,,,,,,,,,,,,,,,,,,,,,,719.3719774580095,719.3807372080046,720.0706456250045,720.1645094996823,725.9477969169966,725.9323092919949,725.9323709580058,725.9477969169966,725.9477969169966,726.3499260419921,2,0.3960586239991244,None,,,,,,,,,,,,,,,,,,,,,,,,,meg,001,2026-03-12_10h55.58.434,ASS_builder_online,,2025.1.1,None,2026-03-12 10h56.04.920449 +0900,
stimuli/stim_df2_soa0.09.wav,2,0.09,73,1,4,,,,1,0.27508091600611806,None,,,,,,,,4,1,73,0,,,,,726.3711593750049,,,,,,,,,,,,,,,,,,,,,,,,,,,,,,,,,,,,726.3612809170154,726.3711593750049,727.0645992500067,727.1532092916643,731.488935625006,731.481644332991,731.4817371669924,731.488935625006,731.488935625006,731.7667590419878,1,0.27508091600611806,None,,,,,,,,,,,,,,,,,,,,,,,,,meg,001,2026-03-12_10h55.58.434,ASS_builder_online,,2025.1.1,None,2026-03-12 10h56.04.920449 +0900,
stimuli/stim_df4_soa0.12.wav,4,0.12,74,2,4,,,,2,0.46584799999254756,None,,,,,,,,4,2,74,4,,,,,731.7893500830105,,,,,,,,,,,,,,,,,,,,,,,,,,,,,,,,,,,,731.7804229170142,731.7893500830105,732.4867813329911,732.5707053336703,738.3462467920035,738.3389355420077,738.3390054579941,738.3462467920035,738.3462467920035,738.8161364580155,2,0.46584799999254756,None,,,,,,,,,,,,,,,,,,,,,,,,,meg,001,2026-03-12_10h55.58.434,ASS_builder_online,,2025.1.1,None,2026-03-12 10h56.04.920449 +0900,
stimuli/stim_df10_soa0.18.wav,10,0.18,75,3,4,,,,1,0.5802470409835223,None,,,,,,,,4,3,75,14,,,,,738.8432862079935,,,,,,,,,,,,,,,,,,,,,,,,,,,,,,,,,,,,738.8359381670016,738.8432862079935,739.5366690829978,739.6203415416569,748.2812720419897,748.2686408330046,748.2686973329983,748.2812720419897,748.2812720419897,748.8667700829974,1,0.5802470409835223,None,,,,,,,,,,,,,,,,,,,,,,,,,meg,001,2026-03-12_10h55.58.434,ASS_builder_online,,2025.1.1,None,2026-03-12 10h56.04.920449 +0900,
stimuli/stim_df10_soa0.09.wav,10,0.09,76,4,4,,,,2,1.211339041008614,None,,,,,,,,4,4,76,12,,,,,748.8879174999893,,,,,,,,,,,,,,,,,,,,,,,,,,,,,,,,,,,,748.8782252919918,748.8879174999893,749.5812132080027,749.6705547496715,754.0066844579997,753.9992698330025,753.9993824170087,754.0066844579997,754.0066844579997,755.2226695829886,2,1.211339041008614,None,,,,,,,,,,,,,,,,,,,,,,,,,meg,001,2026-03-12_10h55.58.434,ASS_builder_online,,2025.1.1,None,2026-03-12 10h56.04.920449 +0900,
stimuli/stim_df12_soa0.18.wav,12,0.18,77,5,4,,,,1,0.5153514989942778,None,,,,,,,,4,5,77,17,,,,,755.2512642499933,,,,,,,,,,,,,,,,,,,,,,,,,,,,,,,,,,,,755.2439291669871,755.2512642499933,755.9478344169911,756.0310330836548,764.6860731249908,764.6786605000088,764.6787324580073,764.6860731249908,764.6860731249908,765.2067544999882,1,0.5153514989942778,None,,,,,,,,,,,,,,,,,,,,,,,,,meg,001,2026-03-12_10h55.58.434,ASS_builder_online,,2025.1.1,None,2026-03-12 10h56.04.920449 +0900,
stimuli/stim_df12_soa0.09.wav,12,0.09,78,6,4,,,,2,0.5096229990012944,None,,,,,,,,4,6,78,15,,,,,765.2305472920125,,,,,,,,,,,,,,,,,,,,,,,,,,,,,,,,,,,,765.2193088750064,765.2305472920125,765.9197218749905,766.0144739166756,770.364178207994,770.3418000419915,770.3418633750116,770.364178207994,770.364178207994,770.8821886669903,2,0.5096229990012944,None,,,,,,,,,,,,,,,,,,,,,,,,,meg,001,2026-03-12_10h55.58.434,ASS_builder_online,,2025.1.1,None,2026-03-12 10h56.04.920449 +0900,
stimuli/stim_df10_soa0.12.wav,10,0.12,79,7,4,,,,1,0.5587442489922978,None,,,,,,,,4,7,79,13,,,,,770.9040911250049,,,,,,,,,,,,,,,,,,,,,,,,,,,,,,,,,,,,770.8960255419952,770.9040911250049,771.5976959170075,771.6872187916636,777.463193500007,777.4552649169927,777.4553290829936,777.463193500007,777.463193500007,778.0332214579976,1,0.5587442489922978,None,,,,,,,,,,,,,,,,,,,,,,,,,meg,001,2026-03-12_10h55.58.434,ASS_builder_online,,2025.1.1,None,2026-03-12 10h56.04.920449 +0900,
stimuli/stim_df4_soa0.18.wav,4,0.18,80,8,4,,,,1,0.9402430409973022,None,,,,,,,,4,8,80,5,,,,,778.0596241670137,,,,,,,,,,,,,,,,,,,,,,,,,,,,,,,,,,,,778.052353667008,778.0596241670137,778.7536681249912,778.8373752086811,787.4977477079956,787.485419042001,787.4855105419992,787.4977477079956,787.4977477079956,788.4504757919931,1,0.9402430409973022,None,,,,,,,,,,,,,,,,,,,,,,,,,meg,001,2026-03-12_10h55.58.434,ASS_builder_online,,2025.1.1,None,2026-03-12 10h56.04.920449 +0900,
stimuli/stim_df8_soa0.18.wav,8,0.18,81,9,4,,,,1,1.1066290820017457,None,,,,,,,,4,9,81,11,,,,,788.477648125001,,,,,,,,,,,,,,,,,,,,,,,,,,,,,,,,,,,,788.4704375000147,788.477648125001,789.1701093330048,789.253558749657,797.9144593329984,797.9006775830057,797.9007252920128,797.9144593329984,797.9144593329984,799.0233658750076,1,1.1066290820017457,None,,,,,,,,,,,,,,,,,,,,,,,,,meg,001,2026-03-12_10h55.58.434,ASS_builder_online,,2025.1.1,None,2026-03-12 10h56.04.920449 +0900,
stimuli/stim_df4_soa0.09.wav,4,0.09,82,10,4,,,,2,0.6128535829775501,None,,,,,,,,4,10,82,3,,,,,799.0459629580146,,,,,,,,,,,,,,,,,,,,,,,,,,,,,,,,,,,,799.0355904170137,799.0459629580146,799.7366972079908,799.8316528746548,804.1666535419936,804.1591997499927,804.159286500013,804.1666535419936,804.1666535419936,804.7828755420051,2,0.6128535829775501,None,,,,,,,,,,,,,,,,,,,,,,,,,meg,001,2026-03-12_10h55.58.434,ASS_builder_online,,2025.1.1,None,2026-03-12 10h56.04.920449 +0900,
stimuli/stim_df8_soa0.09.wav,8,0.09,83,11,4,,,,2,0.8461763320083264,None,,,,,,,,4,11,83,9,,,,,804.8046827079961,,,,,,,,,,,,,,,,,,,,,,,,,,,,,,,,,,,,804.7947942079918,804.8046827079961,805.4979812499951,805.5867494166635,809.922970457992,809.915179167001,809.9152608329896,809.922970457992,809.922970457992,810.772865750012,2,0.8461763320083264,None,,,,,,,,,,,,,,,,,,,,,,,,,meg,001,2026-03-12_10h55.58.434,ASS_builder_online,,2025.1.1,None,2026-03-12 10h56.04.920449 +0900,
stimuli/stim_df6_soa0.09.wav,6,0.09,84,12,4,,,,1,0.519828333024634,None,,,,,,,,4,12,84,6,,,,,810.7950943750038,,,,,,,,,,,,,,,,,,,,,,,,,,,,,,,,,,,,810.7857218330028,810.7950943750038,811.4875104580133,811.5811156246675,815.916754292004,815.9093805000011,815.9094433329883,815.916754292004,815.916754292004,816.4394119580102,1,0.519828333024634,None,,,,,,,,,,,,,,,,,,,,,,,,,meg,001,2026-03-12_10h55.58.434,ASS_builder_online,,2025.1.1,None,2026-03-12 10h56.04.920449 +0900,
stimuli/stim_df2_soa0.12.wav,2,0.12,85,13,4,,,,1,0.6347462070116308,None,,,,,,,,4,13,85,1,,,,,816.4611437499989,,,,,,,,,,,,,,,,,,,,,,,,,,,,,,,,,,,,816.4534858330153,816.4611437499989,817.1536787080113,817.247573374658,823.031063041999,823.0154629170138,823.0155198329885,823.031063041999,823.031063041999,823.6726982080145,1,0.6347462070116308,None,,,,,,,,,,,,,,,,,,,,,,,,,meg,001,2026-03-12_10h55.58.434,ASS_builder_online,,2025.1.1,None,2026-03-12 10h56.04.920449 +0900,
stimuli/stim_df6_soa0.12.wav,6,0.12,86,14,4,,,,2,0.566478957014624,None,,,,,,,,4,14,86,7,,,,,823.6984313330031,,,,,,,,,,,,,,,,,,,,,,,,,,,,,,,,,,,,823.6881987919915,823.6984313330031,824.3978594169894,824.4811794996824,830.2645034170127,830.2490344170074,830.2490967499907,830.2645034170127,830.2645034170127,830.8390993750072,2,0.566478957014624,None,,,,,,,,,,,,,,,,,,,,,,,,,meg,001,2026-03-12_10h55.58.434,ASS_builder_online,,2025.1.1,None,2026-03-12 10h56.04.920449 +0900,
stimuli/stim_df6_soa0.18.wav,6,0.18,87,15,4,,,,2,31.67158054097672,None,,,,,,,,4,15,87,8,,,,,830.8663380829967,,,,,,,,,,,,,,,,,,,,,,,,,,,,,,,,,,,,830.8588148750132,830.8663380829967,831.564523625013,831.6477532086758,840.3023230420076,840.2952859580109,840.2953499580035,840.3023230420076,840.3023230420076,871.9836935829953,2,31.67158054097672,None,,,,,,,,,,,,,,,,,,,,,,,,,meg,001,2026-03-12_10h55.58.434,ASS_builder_online,,2025.1.1,None,2026-03-12 10h56.04.920449 +0900,
stimuli/stim_df8_soa0.12.wav,8,0.12,88,16,4,,,,1,0.62014737498248,None,,,,,,,,4,16,88,10,,,,,872.0059485000093,,,,,,,,,,,,,,,,,,,,,,,,,,,,,,,,,,,,871.9978075000108,872.0059485000093,872.7036582079891,872.7865641246647,878.5635719579877,878.5545989999955,878.5546818750154,878.5635719579877,878.5635719579877,879.1894389170047,1,0.62014737498248,None,,,,,,,,,,,,,,,,,,,,,,,,,meg,001,2026-03-12_10h55.58.434,ASS_builder_online,,2025.1.1,None,2026-03-12 10h56.04.920449 +0900,
stimuli/stim_df2_soa0.18.wav,2,0.18,89,17,4,,,,2,0.48545420801383443,None,,,,,,,,4,17,89,2,,,,,879.2191835829872,,,,,,,,,,,,,,,,,,,,,,,,,,,,,,,,,,,,879.210111583001,879.2191835829872,879.9138204170158,879.9977518336711,888.6528995000117,888.6455268750142,888.6456303329905,888.6528995000117,888.6528995000117,889.1489144999941,2,0.48545420801383443,None,,,,,,,,,,,,,,,,,,,,,,,,,meg,001,2026-03-12_10h55.58.434,ASS_builder_online,,2025.1.1,None,2026-03-12 10h56.04.920449 +0900,
,,,,,,,,,,,,,,,,,,,,,,,,,,,,,,,,,,,,,,,,,,,,,,,,,,,,,,,,,,,,,,,,,,,,,,,,,,,,889.149240083003,889.1614780829987,889.1614780829987,896.105616624991,space,6.942223207995994,None,,,,,,,,,,,,,,,,,,meg,001,2026-03-12_10h55.58.434,ASS_builder_online,,2025.1.1,None,2026-03-12 10h56.04.920449 +0900,
stimuli/stim_df4_soa0.12.wav,4,0.12,0,0,0,,,,,,,2,1.046923040994443,None,,,,,,,,,0,0,0,4,896.1369755830092,,,,,,,,,,,,,,,,,,,,,,,,,,,,,,,,,,,,,,,,,,,,,,,,,,,,,,,,896.1259591249982,896.1369755830092,896.8305974999967,896.9144527496576,902.6976455420081,902.6824533749896,902.6825122500013,902.6976455420081,902.6976455420081,903.7499186249916,2,1.046923040994443,None,,,,,meg,001,2026-03-12_10h55.58.434,ASS_builder_online,,2025.1.1,None,2026-03-12 10h56.04.920449 +0900,
stimuli/stim_df12_soa0.09.wav,12,0.09,1,1,0,,,,,,,2,0.7673795830050949,None,,,,,,,,,0,1,1,15,903.7729205419892,,,,,,,,,,,,,,,,,,,,,,,,,,,,,,,,,,,,,,,,,,,,,,,,,,,,,,,,903.763214458013,903.7729205419892,904.471047250001,904.553961666654,908.8900755830109,908.8824771670043,908.8825443329988,908.8900755830109,908.8900755830109,909.6663755000045,2,0.7673795830050949,None,,,,,meg,001,2026-03-12_10h55.58.434,ASS_builder_online,,2025.1.1,None,2026-03-12 10h56.04.920449 +0900,
stimuli/stim_df2_soa0.18.wav,2,0.18,2,2,0,,,,,,,1,0.41415574902202934,None,,,,,,,,,0,2,2,2,909.6945097919961,,,,,,,,,,,,,,,,,,,,,,,,,,,,,,,,,,,,,,,,,,,,,,,,,,,,,,,,909.686986249988,909.6945097919961,910.3868762080092,910.4703103746617,919.1310627500061,919.1183272080088,919.1184000420035,919.1310627500061,919.1310627500061,919.5494812079996,1,0.41415574902202934,None,,,,,meg,001,2026-03-12_10h55.58.434,ASS_builder_online,,2025.1.1,None,2026-03-12 10h56.04.920449 +0900,
stimuli/stim_df10_soa0.12.wav,10,0.12,3,3,0,,,,,,,1,0.8558429580007214,None,,,,,,,,,0,3,3,13,919.5727898330078,,,,,,,,,,,,,,,,,,,,,,,,,,,,,,,,,,,,,,,,,,,,,,,,,,,,,,,,919.5651528330054,919.5727898330078,920.270878750016,920.3540839586678,926.1302039170114,926.1223485000082,926.1224565420125,926.1302039170114,926.1302039170114,926.9901913329959,1,0.8558429580007214,None,,,,,meg,001,2026-03-12_10h55.58.434,ASS_builder_online,,2025.1.1,None,2026-03-12 10h56.04.920449 +0900,
stimuli/stim_df8_soa0.12.wav,8,0.12,4,4,0,,,,,,,1,0.960240790998796,None,,,,,,,,,0,4,4,10,927.0139885419921,,,,,,,,,,,,,,,,,,,,,,,,,,,,,,,,,,,,,,,,,,,,,,,,,,,,,,,,927.006380042003,927.0139885419921,927.7040239580092,927.7977056666607,933.5810982919938,933.5655837919912,933.5656418330036,933.5810982919938,933.5810982919938,934.5501618749986,1,0.960240790998796,None,,,,,meg,001,2026-03-12_10h55.58.434,ASS_builder_online,,2025.1.1,None,2026-03-12 10h56.04.920449 +0900,
stimuli/stim_df10_soa0.09.wav,10,0.09,5,5,0,,,,,,,1,0.5219696660060436,None,,,,,,,,,0,5,5,12,934.5727124169935,,,,,,,,,,,,,,,,,,,,,,,,,,,,,,,,,,,,,,,,,,,,,,,,,,,,,,,,934.563236624992,934.5727124169935,935.2636971249885,935.3540954996754,939.6977369170054,939.6820476670109,939.6821113750048,939.6977369170054,939.6977369170054,940.2227568330127,1,0.5219696660060436,None,,,,,meg,001,2026-03-12_10h55.58.434,ASS_builder_online,,2025.1.1,None,2026-03-12 10h56.04.920449 +0900,
stimuli/stim_df6_soa0.12.wav,6,0.12,6,6,0,,,,,,,1,0.5794965410022996,None,,,,,,,,,0,6,6,7,940.2509521669999,,,,,,,,,,,,,,,,,,,,,,,,,,,,,,,,,,,,,,,,,,,,,,,,,,,,,,,,940.2416768330149,940.2509521669999,940.9477884999942,941.0305826246661,946.806730457989,946.7994182080147,946.7995073329948,946.806730457989,946.806730457989,947.3901711250073,1,0.5794965410022996,None,,,,,meg,001,2026-03-12_10h55.58.434,ASS_builder_online,,2025.1.1,None,2026-03-12 10h56.04.920449 +0900,
stimuli/stim_df8_soa0.18.wav,8,0.18,7,7,0,,,,,,,1,0.46344154101097956,None,,,,,,,,,0,7,7,11,947.4178457079979,,,,,,,,,,,,,,,,,,,,,,,,,,,,,,,,,,,,,,,,,,,,,,,,,,,,,,,,947.4105139170133,947.4178457079979,948.1143893330009,948.1977157086696,956.852437374997,956.8452680000046,956.8453467079962,956.852437374997,956.852437374997,957.3233585830021,1,0.46344154101097956,None,,,,,meg,001,2026-03-12_10h55.58.434,ASS_builder_online,,2025.1.1,None,2026-03-12 10h56.04.920449 +0900,
stimuli/stim_df4_soa0.18.wav,4,0.18,8,8,0,,,,,,,2,0.46973691598395817,None,,,,,,,,,0,8,8,5,957.3515389169916,,,,,,,,,,,,,,,,,,,,,,,,,,,,,,,,,,,,,,,,,,,,,,,,,,,,,,,,957.3443333329924,957.3515389169916,958.0473064580001,958.1311622086544,966.7863537920057,966.7787282080099,966.7788026669878,966.7863537920057,966.7863537920057,967.2663559580105,2,0.46973691598395817,None,,,,,meg,001,2026-03-12_10h55.58.434,ASS_builder_online,,2025.1.1,None,2026-03-12 10h56.04.920449 +0900,
stimuli/stim_df2_soa0.09.wav,2,0.09,9,9,0,,,,,,,1,0.6126918740046676,None,,,,,,,,,0,9,9,0,967.2891560829885,,,,,,,,,,,,,,,,,,,,,,,,,,,,,,,,,,,,,,,,,,,,,,,,,,,,,,,,967.2795790419914,967.2891560829885,967.9874800830148,968.070825249659,972.4145369170001,972.398714083014,972.3988035829971,972.4145369170001,972.4145369170001,973.03266979201,1,0.6126918740046676,None,,,,,meg,001,2026-03-12_10h55.58.434,ASS_builder_online,,2025.1.1,None,2026-03-12 10h56.04.920449 +0900,
stimuli/stim_df12_soa0.18.wav,12,0.18,10,10,0,,,,,,,2,0.6185762489913031,None,,,,,,,,,0,10,10,17,973.060961042007,,,,,,,,,,,,,,,,,,,,,,,,,,,,,,,,,,,,,,,,,,,,,,,,,,,,,,,,973.0536860830034,973.060961042007,973.754323458008,973.8373354586695,982.4977590829949,982.484326167003,982.4843890829943,982.4977590829949,982.4977590829949,983.1224450420123,2,0.6185762489913031,None,,,,,meg,001,2026-03-12_10h55.58.434,ASS_builder_online,,2025.1.1,None,2026-03-12 10h56.04.920449 +0900,
stimuli/stim_df12_soa0.12.wav,12,0.12,11,11,0,,,,,,,1,0.5612196239817422,None,,,,,,,,,0,11,11,16,983.1470960000006,,,,,,,,,,,,,,,,,,,,,,,,,,,,,,,,,,,,,,,,,,,,,,,,,,,,,,,,983.1396081669955,983.1470960000006,983.8367433329986,983.9311174166544,989.7143581249984,989.699029542011,989.6991040419962,989.7143581249984,989.7143581249984,990.2832144999993,1,0.5612196239817422,None,,,,,meg,001,2026-03-12_10h55.58.434,ASS_builder_online,,2025.1.1,None,2026-03-12 10h56.04.920449 +0900,
stimuli/stim_df2_soa0.12.wav,2,0.12,12,12,0,,,,,,,1,0.5981327910267282,None,,,,,,,,,0,12,12,1,990.3061307499884,,,,,,,,,,,,,,,,,,,,,,,,,,,,,,,,,,,,,,,,,,,,,,,,,,,,,,,,990.2987317079969,990.3061307499884,991.0031150419964,991.0875116246791,996.8633030829951,996.8555841670022,996.8556879580137,996.8633030829951,996.8633030829951,997.4661640829872,1,0.5981327910267282,None,,,,,meg,001,2026-03-12_10h55.58.434,ASS_builder_online,,2025.1.1,None,2026-03-12 10h56.04.920449 +0900,
stimuli/stim_df8_soa0.09.wav,8,0.09,13,13,0,,,,,,,1,0.5463199999940116,None,,,,,,,,,0,13,13,9,997.4891764170025,,,,,,,,,,,,,,,,,,,,,,,,,,,,,,,,,,,,,,,,,,,,,,,,,,,,,,,,997.4788743749959,997.4891764170025,998.1808893750131,998.2709586246676,1002.6144019170024,1002.5989258750051,1002.598986291996,1002.6144019170024,1002.6144019170024,1003.1655741250142,1,0.5463199999940116,None,,,,,meg,001,2026-03-12_10h55.58.434,ASS_builder_online,,2025.1.1,None,2026-03-12 10h56.04.920449 +0900,
stimuli/stim_df10_soa0.18.wav,10,0.18,14,14,0,,,,,,,2,0.35904720801045187,None,,,,,,,,,0,14,14,14,1003.1971070829895,,,,,,,,,,,,,,,,,,,,,,,,,,,,,,,,,,,,,,,,,,,,,,,,,,,,,,,,1003.1882110830047,1003.1971070829895,1003.8875554580009,1003.9708671666779,1012.6311254579923,1012.6178922500112,1012.6179505829932,1012.6311254579923,1012.6311254579923,1012.999861291988,2,0.35904720801045187,None,,,,,meg,001,2026-03-12_10h55.58.434,ASS_builder_online,,2025.1.1,None,2026-03-12 10h56.04.920449 +0900,
stimuli/stim_df6_soa0.09.wav,6,0.09,15,15,0,,,,,,,1,0.6176505410112441,None,,,,,,,,,0,15,15,6,1013.0198307080136,,,,,,,,,,,,,,,,,,,,,,,,,,,,,,,,,,,,,,,,,,,,,,,,,,,,,,,,1013.0121833749872,1013.0198307080136,1013.7140284169873,1013.8038103336623,1018.1396086669993,1018.1323282500089,1018.1324014579877,1018.1396086669993,1018.1396086669993,1018.7667306670046,1,0.6176505410112441,None,,,,,meg,001,2026-03-12_10h55.58.434,ASS_builder_online,,2025.1.1,None,2026-03-12 10h56.04.920449 +0900,
stimuli/stim_df6_soa0.18.wav,6,0.18,16,16,0,,,,,,,2,0.5785177490033675,None,,,,,,,,,0,16,16,8,1018.7941797499952,,,,,,,,,,,,,,,,,,,,,,,,,,,,,,,,,,,,,,,,,,,,,,,,,,,,,,,,1018.7870232920104,1018.7941797499952,1019.4862475419941,1019.5700587916692,1028.2310280830134,1028.217904833,1028.218013708014,1028.2310280830134,1028.2310280830134,1028.816000916995,2,0.5785177490033675,None,,,,,meg,001,2026-03-12_10h55.58.434,ASS_builder_online,,2025.1.1,None,2026-03-12 10h56.04.920449 +0900,
stimuli/stim_df4_soa0.09.wav,4,0.09,17,17,0,,,,,,,1,1.0736191239848267,None,,,,,,,,,0,17,17,3,1028.8377912080032,,,,,,,,,,,,,,,,,,,,,,,,,,,,,,,,,,,,,,,,,,,,,,,,,,,,,,,,1028.8288728749903,1028.8377912080032,1029.5310209580057,1029.6203134166756,1033.9557537499932,1033.948792167008,1033.9488559169986,1033.9557537499932,1033.9557537499932,1035.032679041993,1,1.0736191239848267,None,,,,,meg,001,2026-03-12_10h55.58.434,ASS_builder_online,,2025.1.1,None,2026-03-12 10h56.04.920449 +0900,
stimuli/stim_df6_soa0.12.wav,6,0.12,18,0,1,,,,,,,2,0.48086516599869356,None,,,,,,,,,1,0,18,7,1035.056311249995,,,,,,,,,,,,,,,,,,,,,,,,,,,,,,,,,,,,,,,,,,,,,,,,,,,,,,,,1035.047320624988,1035.056311249995,1035.7537605830003,1035.8370872496782,1041.6132308749948,1041.6053410829918,1041.605408333009,1041.6132308749948,1041.6132308749948,1042.1002921670151,2,0.48086516599869356,None,,,,,meg,001,2026-03-12_10h55.58.434,ASS_builder_online,,2025.1.1,None,2026-03-12 10h56.04.920449 +0900,
stimuli/stim_df10_soa0.12.wav,10,0.12,19,1,1,,,,,,,2,0.5229585409979336,None,,,,,,,,,1,1,19,13,1042.1232899579918,,,,,,,,,,,,,,,,,,,,,,,,,,,,,,,,,,,,,,,,,,,,,,,,,,,,,,,,1042.116031707992,1042.1232899579918,1042.8209857500042,1042.9042099996625,1048.6800112499914,1048.672311458009,1048.6723944999976,1048.6800112499914,1048.6800112499914,1049.2058616249997,2,0.5229585409979336,None,,,,,meg,001,2026-03-12_10h55.58.434,ASS_builder_online,,2025.1.1,None,2026-03-12 10h56.04.920449 +0900,
stimuli/stim_df10_soa0.09.wav,10,0.09,20,2,1,,,,,,,1,0.5202012910158373,None,,,,,,,,,1,2,20,12,1049.2296811669949,,,,,,,,,,,,,,,,,,,,,,,,,,,,,,,,,,,,,,,,,,,,,,,,,,,,,,,,1049.2186956669902,1049.2296811669949,1049.92006962499,1050.0144309586651,1054.3640164580138,1054.3415024999995,1054.3415744169906,1054.3640164580138,1054.3640164580138,1054.889696875005,1,0.5202012910158373,None,,,,,meg,001,2026-03-12_10h55.58.434,ASS_builder_online,,2025.1.1,None,2026-03-12 10h56.04.920449 +0900,
stimuli/stim_df12_soa0.09.wav,12,0.09,21,3,1,,,,,,,2,0.40504791602143086,None,,,,,,,,,1,3,21,15,1054.912082875002,,,,,,,,,,,,,,,,,,,,,,,,,,,,,,,,,,,,,,,,,,,,,,,,,,,,,,,,1054.9022509999922,1054.912082875002,1055.6038772920147,1055.697657166664,1060.0333019579994,1060.0256776669994,1060.0257532499963,1060.0333019579994,1060.0333019579994,1060.4502267919888,2,0.40504791602143086,None,,,,,meg,001,2026-03-12_10h55.58.434,ASS_builder_online,,2025.1.1,None,2026-03-12 10h56.04.920449 +0900,
stimuli/stim_df2_soa0.12.wav,2,0.12,22,4,1,,,,,,,1,0.4217219580023084,None,,,,,,,,,1,4,22,1,1060.4740942080098,,,,,,,,,,,,,,,,,,,,,,,,,,,,,,,,,,,,,,,,,,,,,,,,,,,,,,,,1060.4644133330148,1060.4740942080098,1061.1710280000116,1061.2541144996687,1067.0302237920114,1067.0221079580078,1067.0221755419916,1067.0302237920114,1067.0302237920114,1067.4564440000104,1,0.4217219580023084,None,,,,,meg,001,2026-03-12_10h55.58.434,ASS_builder_online,,2025.1.1,None,2026-03-12 10h56.04.920449 +0900,
stimuli/stim_df8_soa0.09.wav,8,0.09,23,5,1,,,,,,,2,0.5551939160213806,None,,,,,,,,,1,5,23,9,1067.477769707999,,,,,,,,,,,,,,,,,,,,,,,,,,,,,,,,,,,,,,,,,,,,,,,,,,,,,,,,1067.4686107499874,1067.477769707999,1068.1706382920092,1068.2642338746557,1072.6139737080084,1072.5913292920159,1072.5914003750077,1072.6139737080084,1072.6139737080084,1073.1732955420157,2,0.5551939160213806,None,,,,,meg,001,2026-03-12_10h55.58.434,ASS_builder_online,,2025.1.1,None,2026-03-12 10h56.04.920449 +0900,
stimuli/stim_df2_soa0.09.wav,2,0.09,24,6,1,,,,,,,1,0.4499683740141336,None,,,,,,,,,1,6,24,0,1073.1948564579943,,,,,,,,,,,,,,,,,,,,,,,,,,,,,,,,,,,,,,,,,,,,,,,,,,,,,,,,1073.185621667013,1073.1948564579943,1073.8874901249947,1073.9811168746712,1078.330885000003,1078.3082532499975,1078.3083133329928,1078.330885000003,1078.330885000003,1078.7893841670011,1,0.4499683740141336,None,,,,,meg,001,2026-03-12_10h55.58.434,ASS_builder_online,,2025.1.1,None,2026-03-12 10h56.04.920449 +0900,
stimuli/stim_df12_soa0.18.wav,12,0.18,25,7,1,,,,,,,1,0.5803790829959325,None,,,,,,,,,1,7,25,17,1078.8170670419931,,,,,,,,,,,,,,,,,,,,,,,,,,,,,,,,,,,,,,,,,,,,,,,,,,,,,,,,1078.809801083,1078.8170670419931,1079.5143495420052,1079.5975664996697,1088.2525734580122,1088.2451545000076,1088.245233833004,1088.2525734580122,1088.2525734580122,1088.8404115829908,1,0.5803790829959325,None,,,,,meg,001,2026-03-12_10h55.58.434,ASS_builder_online,,2025.1.1,None,2026-03-12 10h56.04.920449 +0900,
stimuli/stim_df8_soa0.18.wav,8,0.18,26,8,1,,,,,,,1,0.46201300001121126,None,,,,,,,,,1,8,26,11,1088.8680299580155,,,,,,,,,,,,,,,,,,,,,,,,,,,,,,,,,,,,,,,,,,,,,,,,,,,,,,,,1088.8609191669966,1088.8680299580155,1089.5643700000073,1089.6478292086724,1098.3032109169872,1098.2955670829979,1098.2956480419962,1098.3032109169872,1098.3032109169872,1098.7725683329918,1,0.46201300001121126,None,,,,,meg,001,2026-03-12_10h55.58.434,ASS_builder_online,,2025.1.1,None,2026-03-12 10h56.04.920449 +0900,
stimuli/stim_df6_soa0.18.wav,6,0.18,27,9,1,,,,,,,2,0.3790102069906425,None,,,,,,,,,1,9,27,8,1098.7993803329882,,,,,,,,,,,,,,,,,,,,,,,,,,,,,,,,,,,,,,,,,,,,,,,,,,,,,,,,1098.7923041250033,1098.7993803329882,1099.4977671249944,1099.5810654996642,1108.2357747920032,1108.2285965830088,1108.2286632079922,1108.2357747920032,1108.2357747920032,1108.6228085420153,2,0.3790102069906425,None,,,,,meg,001,2026-03-12_10h55.58.434,ASS_builder_online,,2025.1.1,None,2026-03-12 10h56.04.920449 +0900,
stimuli/stim_df8_soa0.12.wav,8,0.12,28,10,1,,,,,,,2,0.5473148330056574,None,,,,,,,,,1,10,28,10,1108.643755625002,,,,,,,,,,,,,,,,,,,,,,,,,,,,,,,,,,,,,,,,,,,,,,,,,,,,,,,,1108.6367447499943,1108.643755625002,1109.3376368329918,1109.4309675836741,1115.2134030000016,1115.1990817920014,1115.1991625830124,1115.2134030000016,1115.2134030000016,1115.7655045829888,2,0.5473148330056574,None,,,,,meg,001,2026-03-12_10h55.58.434,ASS_builder_online,,2025.1.1,None,2026-03-12 10h56.04.920449 +0900,
stimuli/stim_df6_soa0.09.wav,6,0.09,29,11,1,,,,,,,1,0.6624379990098532,None,,,,,,,,,1,11,29,6,1115.7873520420108,,,,,,,,,,,,,,,,,,,,,,,,,,,,,,,,,,,,,,,,,,,,,,,,,,,,,,,,1115.7771083750122,1115.7873520420108,1116.4810163330112,1116.56994554168,1120.9057160420052,1120.8983912080002,1120.8984603749996,1120.9057160420052,1120.9057160420052,1121.5731097499956,1,0.6624379990098532,None,,,,,meg,001,2026-03-12_10h55.58.434,ASS_builder_online,,2025.1.1,None,2026-03-12 10h56.04.920449 +0900,
stimuli/stim_df4_soa0.18.wav,4,0.18,30,12,1,,,,,,,1,0.48935720801819116,None,,,,,,,,,1,12,30,5,1121.6036629579903,,,,,,,,,,,,,,,,,,,,,,,,,,,,,,,,,,,,,,,,,,,,,,,,,,,,,,,,1121.5945385000086,1121.6036629579903,1122.2975940830074,1122.381061999655,1131.036283458001,1131.0287945829914,1131.0288644999964,1131.036283458001,1131.036283458001,1131.5329305829946,1,0.48935720801819116,None,,,,,meg,001,2026-03-12_10h55.58.434,ASS_builder_online,,2025.1.1,None,2026-03-12 10h56.04.920449 +0900,
stimuli/stim_df2_soa0.18.wav,2,0.18,31,13,1,,,,,,,2,0.5506253319908865,None,,,,,,,,,1,13,31,2,1131.560132542014,,,,,,,,,,,,,,,,,,,,,,,,,,,,,,,,,,,,,,,,,,,,,,,,,,,,,,,,1131.5527032919927,1131.560132542014,1132.253685292002,1132.3373648746676,1140.9976742500148,1140.984639250004,1140.984745416994,1140.9976742500148,1140.9976742500148,1141.557207292004,2,0.5506253319908865,None,,,,,meg,001,2026-03-12_10h55.58.434,ASS_builder_online,,2025.1.1,None,2026-03-12 10h56.04.920449 +0900,
stimuli/stim_df10_soa0.18.wav,10,0.18,32,14,1,,,,,,,1,0.4529901659989264,None,,,,,,,,,1,14,32,14,1141.5851977920101,,,,,,,,,,,,,,,,,,,,,,,,,,,,,,,,,,,,,,,,,,,,,,,,,,,,,,,,1141.578008957993,1141.5851977920101,1142.281114332989,1142.364475249666,1151.0194477500045,1151.012157457997,1151.0122401250119,1151.0194477500045,1151.0194477500045,1151.483349666989,1,0.4529901659989264,None,,,,,meg,001,2026-03-12_10h55.58.434,ASS_builder_online,,2025.1.1,None,2026-03-12 10h56.04.920449 +0900,
stimuli/stim_df4_soa0.12.wav,4,0.12,33,15,1,,,,,,,1,0.9265809999778867,None,,,,,,,,,1,15,33,4,1151.5058816669916,,,,,,,,,,,,,,,,,,,,,,,,,,,,,,,,,,,,,,,,,,,,,,,,,,,,,,,,1151.4979559580097,1151.5058816669916,1152.2043749580043,1152.2866096246619,1158.0629762920144,1158.0545589580142,1158.0546313330124,1158.0629762920144,1158.0629762920144,1158.9998033329903,1,0.9265809999778867,None,,,,,meg,001,2026-03-12_10h55.58.434,ASS_builder_online,,2025.1.1,None,2026-03-12 10h56.04.920449 +0900,
stimuli/stim_df4_soa0.09.wav,4,0.09,34,16,1,,,,,,,2,0.637058791005984,None,,,,,,,,,1,16,34,3,1159.0217791250034,,,,,,,,,,,,,,,,,,,,,,,,,,,,,,,,,,,,,,,,,,,,,,,,,,,,,,,,1159.0118845420075,1159.0217791250034,1159.7210039999918,1159.804162791672,1164.147819875012,1164.132039167016,1164.1321125419927,1164.147819875012,1164.147819875012,1164.789884333004,2,0.637058791005984,None,,,,,meg,001,2026-03-12_10h55.58.434,ASS_builder_online,,2025.1.1,None,2026-03-12 10h56.04.920449 +0900,
stimuli/stim_df12_soa0.12.wav,12,0.12,35,17,1,,,,,,,1,0.43284049900830723,None,,,,,,,,,1,17,35,16,1164.8123299579893,,,,,,,,,,,,,,,,,,,,,,,,,,,,,,,,,,,,,,,,,,,,,,,,,,,,,,,,1164.8046710419876,1164.8123299579893,1165.5042078749975,1165.597696041663,1171.381077291997,1171.3655069580127,1171.3655621669895,1171.381077291997,1171.381077291997,1171.8160569579923,1,0.43284049900830723,None,,,,,meg,001,2026-03-12_10h55.58.434,ASS_builder_online,,2025.1.1,None,2026-03-12 10h56.04.920449 +0900,
stimuli/stim_df12_soa0.18.wav,12,0.18,36,0,2,,,,,,,1,1.5436422490165569,None,,,,,,,,,2,0,36,17,1171.8424546250026,,,,,,,,,,,,,,,,,,,,,,,,,,,,,,,,,,,,,,,,,,,,,,,,,,,,,,,,1171.8354348750145,1171.8424546250026,1172.5376193330158,1172.6208273336563,1181.2804787500063,1181.268441082997,1181.2685272500094,1181.2804787500063,1181.2804787500063,1182.8331657499948,1,1.5436422490165569,None,,,,,meg,001,2026-03-12_10h55.58.434,ASS_builder_online,,2025.1.1,None,2026-03-12 10h56.04.920449 +0900,
stimuli/stim_df10_soa0.09.wav,10,0.09,37,1,2,,,,,,,1,1.5754186239792034,None,,,,,,,,,2,1,37,12,1182.8538775829948,,,,,,,,,,,,,,,,,,,,,,,,,,,,,,,,,,,,,,,,,,,,,,,,,,,,,,,,1182.844055958005,1182.8538775829948,1183.547703166987,1183.6373775836585,1187.9811306250049,1187.9653917920077,1187.965452250006,1187.9811306250049,1187.9811306250049,1189.5655254170124,1,1.5754186239792034,None,,,,,meg,001,2026-03-12_10h55.58.434,ASS_builder_online,,2025.1.1,None,2026-03-12 10h56.04.920449 +0900,
stimuli/stim_df2_soa0.09.wav,2,0.09,38,2,2,,,,,,,1,0.5628129990072921,None,,,,,,,,,2,2,38,0,1189.5870016670087,,,,,,,,,,,,,,,,,,,,,,,,,,,,,,,,,,,,,,,,,,,,,,,,,,,,,,,,1189.5768122920126,1189.5870016670087,1190.2804445830116,1190.3696610836816,1194.7139184169937,1194.697934583004,1194.6980004170036,1194.7139184169937,1194.7139184169937,1195.2825596249895,1,0.5628129990072921,None,,,,,meg,001,2026-03-12_10h55.58.434,ASS_builder_online,,2025.1.1,None,2026-03-12 10h56.04.920449 +0900,
stimuli/stim_df10_soa0.18.wav,10,0.18,39,3,2,,,,,,,1,0.6141433329903521,None,,,,,,,,,2,3,39,14,1195.310273250012,,,,,,,,,,,,,,,,,,,,,,,,,,,,,,,,,,,,,,,,,,,,,,,,,,,,,,,,1195.3016592919885,1195.310273250012,1196.0031968750118,1196.0861755416593,1204.747063207993,1204.7356211250008,1204.735686125001,1204.747063207993,1204.747063207993,1205.3657337920158,1,0.6141433329903521,None,,,,,meg,001,2026-03-12_10h55.58.434,ASS_builder_online,,2025.1.1,None,2026-03-12 10h56.04.920449 +0900,
stimuli/stim_df2_soa0.18.wav,2,0.18,40,4,2,,,,,,,1,2.870821791002527,None,,,,,,,,,2,4,40,2,1205.3927307919948,,,,,,,,,,,,,,,,,,,,,,,,,,,,,,,,,,,,,,,,,,,,,,,,,,,,,,,,1205.385356667015,1205.3927307919948,1206.0864480420132,1206.169762583657,1214.8305584999907,1214.8194999580155,1214.8195592499978,1214.8305584999907,1214.8305584999907,1217.7043620420154,1,2.870821791002527,None,,,,,meg,001,2026-03-12_10h55.58.434,ASS_builder_online,,2025.1.1,None,2026-03-12 10h56.04.920449 +0900,
stimuli/stim_df6_soa0.12.wav,6,0.12,41,5,2,,,,,,,1,0.5866622079920489,None,,,,,,,,,2,5,41,7,1217.7291275830066,,,,,,,,,,,,,,,,,,,,,,,,,,,,,,,,,,,,,,,,,,,,,,,,,,,,,,,,1217.7197395830008,1217.7291275830066,1218.4197547080112,1218.5137507496731,1224.2972323329886,1224.281988542003,1224.2820569169999,1224.2972323329886,1224.2972323329886,1224.8877429999993,1,0.5866622079920489,None,,,,,meg,001,2026-03-12_10h55.58.434,ASS_builder_online,,2025.1.1,None,2026-03-12 10h56.04.920449 +0900,
stimuli/stim_df12_soa0.09.wav,12,0.09,42,6,2,,,,,,,2,0.8497789569955785,None,,,,,,,,,2,6,42,15,1224.909804541996,,,,,,,,,,,,,,,,,,,,,,,,,,,,,,,,,,,,,,,,,,,,,,,,,,,,,,,,1224.899495916994,1224.909804541996,1225.6029354580096,1225.6970178746599,1230.0476023750089,1230.0248507919896,1230.0249426249939,1230.0476023750089,1230.0476023750089,1230.9049473750056,2,0.8497789569955785,None,,,,,meg,001,2026-03-12_10h55.58.434,ASS_builder_online,,2025.1.1,None,2026-03-12 10h56.04.920449 +0900,
stimuli/stim_df8_soa0.12.wav,8,0.12,43,7,2,,,,,,,1,1.00331124899094,None,,,,,,,,,2,7,43,10,1230.9275980000093,,,,,,,,,,,,,,,,,,,,,,,,,,,,,,,,,,,,,,,,,,,,,,,,,,,,,,,,1230.9201535829925,1230.9275980000093,1231.6195455419947,1231.7137605836654,1237.497106625,1237.4820079999918,1237.4820835000137,1237.497106625,1237.497106625,1238.5047508749994,1,1.00331124899094,None,,,,,meg,001,2026-03-12_10h55.58.434,ASS_builder_online,,2025.1.1,None,2026-03-12 10h56.04.920449 +0900,
stimuli/stim_df2_soa0.12.wav,2,0.12,44,8,2,,,,,,,2,1.1007047070015687,None,,,,,,,,,2,8,44,1,1238.528268916998,,,,,,,,,,,,,,,,,,,,,,,,,,,,,,,,,,,,,,,,,,,,,,,,,,,,,,,,1238.520529166999,1238.528268916998,1239.2201021669898,1239.3136992086695,1245.0893947500153,1245.081769832992,1245.0818244999973,1245.0893947500153,1245.0893947500153,1246.1990675000125,2,1.1007047070015687,None,,,,,meg,001,2026-03-12_10h55.58.434,ASS_builder_online,,2025.1.1,None,2026-03-12 10h56.04.920449 +0900,
stimuli/stim_df4_soa0.18.wav,4,0.18,45,9,2,,,,,,,1,0.5803503319912124,None,,,,,,,,,2,9,45,5,1246.2289670830069,,,,,,,,,,,,,,,,,,,,,,,,,,,,,,,,,,,,,,,,,,,,,,,,,,,,,,,,1246.2202429170138,1246.2289670830069,1246.9199092499912,1247.0025949586745,1255.6637366249925,1255.6520731670025,1255.6521319579915,1255.6637366249925,1255.6637366249925,1256.2491405420005,1,0.5803503319912124,None,,,,,meg,001,2026-03-12_10h55.58.434,ASS_builder_online,,2025.1.1,None,2026-03-12 10h56.04.920449 +0900,
stimuli/stim_df6_soa0.09.wav,6,0.09,46,10,2,,,,,,,2,0.3489337909850292,None,,,,,,,,,2,10,46,6,1256.2703517919872,,,,,,,,,,,,,,,,,,,,,,,,,,,,,,,,,,,,,,,,,,,,,,,,,,,,,,,,1256.2603748750116,1256.2703517919872,1256.9637685419875,1257.0532864586605,1261.397221207997,1261.3813949580071,1261.3814537920116,1261.397221207997,1261.397221207997,1261.7490106250043,2,0.3489337909850292,None,,,,,meg,001,2026-03-12_10h55.58.434,ASS_builder_online,,2025.1.1,None,2026-03-12 10h56.04.920449 +0900,
stimuli/stim_df8_soa0.18.wav,8,0.18,47,11,2,,,,,,,2,1.0956700830138288,None,,,,,,,,,2,11,47,11,1261.7759730830148,,,,,,,,,,,,,,,,,,,,,,,,,,,,,,,,,,,,,,,,,,,,,,,,,,,,,,,,1261.7683952499938,1261.7759730830148,1262.4694151669974,1262.5530520416544,1271.213741707994,1271.2009675829904,1271.2010340419947,1271.213741707994,1271.213741707994,1272.315737708006,2,1.0956700830138288,None,,,,,meg,001,2026-03-12_10h55.58.434,ASS_builder_online,,2025.1.1,None,2026-03-12 10h56.04.920449 +0900,
stimuli/stim_df4_soa0.09.wav,4,0.09,48,12,2,,,,,,,2,1.4859839989803731,None,,,,,,,,,2,12,48,3,1272.3375494999927,,,,,,,,,,,,,,,,,,,,,,,,,,,,,,,,,,,,,,,,,,,,,,,,,,,,,,,,1272.3272511250107,1272.3375494999927,1273.0365398330032,1273.120273291661,1277.4638000830018,1277.4485060829902,1277.4485867499898,1277.4638000830018,1277.4638000830018,1278.9548252079985,2,1.4859839989803731,None,,,,,meg,001,2026-03-12_10h55.58.434,ASS_builder_online,,2025.1.1,None,2026-03-12 10h56.04.920449 +0900,
stimuli/stim_df10_soa0.12.wav,10,0.12,49,13,2,,,,,,,2,0.5093902079970576,None,,,,,,,,,2,13,49,13,1278.9785751670133,,,,,,,,,,,,,,,,,,,,,,,,,,,,,,,,,,,,,,,,,,,,,,,,,,,,,,,,1278.9700523749925,1278.9785751670133,1279.6692191670008,1279.7637245836706,1285.547199749999,1285.5318635000149,1285.5319320829876,1285.547199749999,1285.547199749999,1286.0657134999929,2,0.5093902079970576,None,,,,,meg,001,2026-03-12_10h55.58.434,ASS_builder_online,,2025.1.1,None,2026-03-12 10h56.04.920449 +0900,
stimuli/stim_df4_soa0.12.wav,4,0.12,50,14,2,,,,,,,1,0.5642844160029199,None,,,,,,,,,2,14,50,4,1286.0892133330053,,,,,,,,,,,,,,,,,,,,,,,,,,,,,,,,,,,,,,,,,,,,,,,,,,,,,,,,1286.0800913750136,1286.0892133330053,1286.7865041249897,1286.8697380836568,1292.6472528750019,1292.6368262500037,1292.6368847920094,1292.6472528750019,1292.6472528750019,1293.215415957995,1,0.5642844160029199,None,,,,,meg,001,2026-03-12_10h55.58.434,ASS_builder_online,,2025.1.1,None,2026-03-12 10h56.04.920449 +0900,
stimuli/stim_df12_soa0.12.wav,12,0.12,51,15,2,,,,,,,1,0.4029521239863243,None,,,,,,,,,2,15,51,16,1293.2391583329882,,,,,,,,,,,,,,,,,,,,,,,,,,,,,,,,,,,,,,,,,,,,,,,,,,,,,,,,1293.2299375830044,1293.2391583329882,1293.9364922920067,1294.0194901666584,1299.797015624994,1299.7866307499935,1299.786694792012,1299.797015624994,1299.797015624994,1300.204973542015,1,0.4029521239863243,None,,,,,meg,001,2026-03-12_10h55.58.434,ASS_builder_online,,2025.1.1,None,2026-03-12 10h56.04.920449 +0900,
stimuli/stim_df8_soa0.09.wav,8,0.09,52,16,2,,,,,,,2,0.9394982079975307,None,,,,,,,,,2,16,52,9,1300.2279537499999,,,,,,,,,,,,,,,,,,,,,,,,,,,,,,,,,,,,,,,,,,,,,,,,,,,,,,,,1300.217247958004,1300.2279537499999,1300.919764166989,1301.0140211666624,1305.351693583012,1305.3422367080057,1305.3423117079947,1305.351693583012,1305.351693583012,1306.2990127920057,2,0.9394982079975307,None,,,,,meg,001,2026-03-12_10h55.58.434,ASS_builder_online,,2025.1.1,None,2026-03-12 10h56.04.920449 +0900,
stimuli/stim_df6_soa0.18.wav,6,0.18,53,17,2,,,,,,,1,0.4873624999891035,None,,,,,,,,,2,17,53,8,1306.3244741669914,,,,,,,,,,,,,,,,,,,,,,,,,,,,,,,,,,,,,,,,,,,,,,,,,,,,,,,,1306.31714095801,1306.3244741669914,1307.01978529201,1307.1029097496687,1315.763684583013,1315.7506032079982,1315.7506861670117,1315.763684583013,1315.763684583013,1316.2549782920105,1,0.4873624999891035,None,,,,,meg,001,2026-03-12_10h55.58.434,ASS_builder_online,,2025.1.1,None,2026-03-12 10h56.04.920449 +0900,
stimuli/stim_df6_soa0.12.wav,6,0.12,54,0,3,,,,,,,2,1.316804457019316,None,,,,,,,,,3,0,54,7,1316.280396416987,,,,,,,,,,,,,,,,,,,,,,,,,,,,,,,,,,,,,,,,,,,,,,,,,,,,,,,,1316.2701724999934,1316.280396416987,1316.9696677080065,1317.0637638746741,1322.83957487499,1322.8325770419906,1322.8326677079895,1322.83957487499,1322.83957487499,1324.1657421670097,2,1.316804457019316,None,,,,,meg,001,2026-03-12_10h55.58.434,ASS_builder_online,,2025.1.1,None,2026-03-12 10h56.04.920449 +0900,
stimuli/stim_df6_soa0.18.wav,6,0.18,55,1,3,,,,,,,1,1.005731040990213,None,,,,,,,,,3,1,55,8,1324.1946725829912,,,,,,,,,,,,,,,,,,,,,,,,,,,,,,,,,,,,,,,,,,,,,,,,,,,,,,,,1324.186075042002,1324.1946725829912,1324.8862086670124,1324.9693774996597,1333.6303805419884,1333.6173391669872,1333.6173999999883,1333.6303805419884,1333.6303805419884,1334.6385282080155,1,1.005731040990213,None,,,,,meg,001,2026-03-12_10h55.58.434,ASS_builder_online,,2025.1.1,None,2026-03-12 10h56.04.920449 +0900,
stimuli/stim_df12_soa0.18.wav,12,0.18,56,2,3,,,,,,,2,0.579612541012466,None,,,,,,,,,3,2,56,17,1334.6665901670058,,,,,,,,,,,,,,,,,,,,,,,,,,,,,,,,,,,,,,,,,,,,,,,,,,,,,,,,1334.6591862080095,1334.6665901670058,1335.3636926670151,1335.4470408746604,1344.1022689169913,1344.094637083006,1344.0946980419976,1344.1022689169913,1344.1022689169913,1344.688459500001,2,0.579612541012466,None,,,,,meg,001,2026-03-12_10h55.58.434,ASS_builder_online,,2025.1.1,None,2026-03-12 10h56.04.920449 +0900,
stimuli/stim_df10_soa0.12.wav,10,0.12,57,3,3,,,,,,,1,0.37796545700985007,None,,,,,,,,,3,3,57,13,1344.711819167016,,,,,,,,,,,,,,,,,,,,,,,,,,,,,,,,,,,,,,,,,,,,,,,,,,,,,,,,1344.7037640830094,1344.711819167016,1345.4029178330093,1345.4970187086767,1351.2803885829926,1351.265193625004,1351.2652797499904,1351.2803885829926,1351.2803885829926,1351.6656836670008,1,0.37796545700985007,None,,,,,meg,001,2026-03-12_10h55.58.434,ASS_builder_online,,2025.1.1,None,2026-03-12 10h56.04.920449 +0900,
stimuli/stim_df8_soa0.12.wav,8,0.12,58,4,3,,,,,,,2,0.8634686240111478,None,,,,,,,,,3,4,58,10,1351.6887127500086,,,,,,,,,,,,,,,,,,,,,,,,,,,,,,,,,,,,,,,,,,,,,,,,,,,,,,,,1351.6800379999913,1351.6887127500086,1352.3863618749892,1352.4695087086623,1358.2470967500121,1358.2365579580073,1358.2366216249939,1358.2470967500121,1358.2470967500121,1359.1155064170016,2,0.8634686240111478,None,,,,,meg,001,2026-03-12_10h55.58.434,ASS_builder_online,,2025.1.1,None,2026-03-12 10h56.04.920449 +0900,
stimuli/stim_df6_soa0.09.wav,6,0.09,59,5,3,,,,,,,1,0.4360339569975622,None,,,,,,,,,3,5,59,6,1359.1364324580063,,,,,,,,,,,,,,,,,,,,,,,,,,,,,,,,,,,,,,,,,,,,,,,,,,,,,,,,1359.1261213750113,1359.1364324580063,1359.8302739580104,1359.9198490416786,1364.263711333013,1364.2481739580107,1364.2482548330154,1364.263711333013,1364.263711333013,1364.7048672919918,1,0.4360339569975622,None,,,,,meg,001,2026-03-12_10h55.58.434,ASS_builder_online,,2025.1.1,None,2026-03-12 10h56.04.920449 +0900,
stimuli/stim_df12_soa0.09.wav,12,0.09,60,6,3,,,,,,,2,0.29923299900838174,None,,,,,,,,,3,6,60,15,1364.7277915000159,,,,,,,,,,,,,,,,,,,,,,,,,,,,,,,,,,,,,,,,,,,,,,,,,,,,,,,,1364.717203417007,1364.7277915000159,1365.4197732500033,1365.5137367496538,1369.8471192500147,1369.840544333012,1369.8405993749911,1369.8471192500147,1369.8471192500147,1370.1489337499952,2,0.29923299900838174,None,,,,,meg,001,2026-03-12_10h55.58.434,ASS_builder_online,,2025.1.1,None,2026-03-12 10h56.04.920449 +0900,
stimuli/stim_df8_soa0.18.wav,8,0.18,61,7,3,,,,,,,1,0.4854000409832224,None,,,,,,,,,3,7,61,11,1370.1781544580008,,,,,,,,,,,,,,,,,,,,,,,,,,,,,,,,,,,,,,,,,,,,,,,,,,,,,,,,1370.1703614580038,1370.1781544580008,1370.869646792009,1370.9528938336628,1379.6139873329957,1379.6004322920053,1379.6005200830114,1379.6139873329957,1379.6139873329957,1380.1055699579883,1,0.4854000409832224,None,,,,,meg,001,2026-03-12_10h55.58.434,ASS_builder_online,,2025.1.1,None,2026-03-12 10h56.04.920449 +0900,
stimuli/stim_df12_soa0.12.wav,12,0.12,62,8,3,,,,,,,2,0.30187895699054934,None,,,,,,,,,3,8,62,16,1380.1299574580044,,,,,,,,,,,,,,,,,,,,,,,,,,,,,,,,,,,,,,,,,,,,,,,,,,,,,,,,1380.1207440829894,1380.1299574580044,1380.819530333014,1380.9137649166553,1386.6971351669927,1386.6820153330045,1386.6820908749942,1386.6971351669927,1386.6971351669927,1387.0052787919994,2,0.30187895699054934,None,,,,,meg,001,2026-03-12_10h55.58.434,ASS_builder_online,,2025.1.1,None,2026-03-12 10h56.04.920449 +0900,
stimuli/stim_df2_soa0.09.wav,2,0.09,63,9,3,,,,,,,1,0.43788566600414924,None,,,,,,,,,3,9,63,0,1387.0266874170047,,,,,,,,,,,,,,,,,,,,,,,,,,,,,,,,,,,,,,,,,,,,,,,,,,,,,,,,1387.0174600419996,1387.0266874170047,1387.719537833007,1387.8137475416627,1392.1642904999899,1392.1416911669949,1392.1417604169983,1392.1642904999899,1392.1642904999899,1392.6052302499884,1,0.43788566600414924,None,,,,,meg,001,2026-03-12_10h55.58.434,ASS_builder_online,,2025.1.1,None,2026-03-12 10h56.04.920449 +0900,
stimuli/stim_df4_soa0.12.wav,4,0.12,64,10,3,,,,,,,2,0.3461576660047285,None,,,,,,,,,3,10,64,4,1392.6283502079896,,,,,,,,,,,,,,,,,,,,,,,,,,,,,,,,,,,,,,,,,,,,,,,,,,,,,,,,1392.6204649579886,1392.6283502079896,1393.3195357919903,1393.4136403746709,1399.1894440829928,1399.1823759170074,1399.1824595830112,1399.1894440829928,1399.1894440829928,1399.5379943750158,2,0.3461576660047285,None,,,,,meg,001,2026-03-12_10h55.58.434,ASS_builder_online,,2025.1.1,None,2026-03-12 10h56.04.920449 +0900,
stimuli/stim_df4_soa0.18.wav,4,0.18,65,11,3,,,,,,,1,0.3454382909985725,None,,,,,,,,,3,11,65,5,1399.565739624988,,,,,,,,,,,,,,,,,,,,,,,,,,,,,,,,,,,,,,,,,,,,,,,,,,,,,,,,1399.5585776249936,1399.565739624988,1400.2637546249898,1400.3470642916548,1409.00206983299,1408.9949743330071,1408.995030457998,1409.00206983299,1409.00206983299,1409.3549438329937,1,0.3454382909985725,None,,,,,meg,001,2026-03-12_10h55.58.434,ASS_builder_online,,2025.1.1,None,2026-03-12 10h56.04.920449 +0900,
stimuli/stim_df10_soa0.09.wav,10,0.09,66,12,3,,,,,,,2,0.2679471659939736,None,,,,,,,,,3,12,66,12,1409.3763155830093,,,,,,,,,,,,,,,,,,,,,,,,,,,,,,,,,,,,,,,,,,,,,,,,,,,,,,,,1409.366506374994,1409.3763155830093,1410.0697808330006,1410.1637566246538,1414.5141609999991,1414.490810999996,1414.490878542012,1414.5141609999991,1414.5141609999991,1414.7881674579985,2,0.2679471659939736,None,,,,,meg,001,2026-03-12_10h55.58.434,ASS_builder_online,,2025.1.1,None,2026-03-12 10h56.04.920449 +0900,
stimuli/stim_df2_soa0.12.wav,2,0.12,67,13,3,,,,,,,2,0.22865045801154338,None,,,,,,,,,3,13,67,1,1414.8106014170044,,,,,,,,,,,,,,,,,,,,,,,,,,,,,,,,,,,,,,,,,,,,,,,,,,,,,,,,1414.8031753330142,1414.8106014170044,1415.5029792500136,1415.5977210836757,1421.3804802079976,1421.3657878329977,1421.3658519579913,1421.3804802079976,1421.3804802079976,1421.615624375001,2,0.22865045801154338,None,,,,,meg,001,2026-03-12_10h55.58.434,ASS_builder_online,,2025.1.1,None,2026-03-12 10h56.04.920449 +0900,
stimuli/stim_df10_soa0.18.wav,10,0.18,68,14,3,,,,,,,2,0.4861472079937812,None,,,,,,,,,3,14,68,14,1421.6444303329918,,,,,,,,,,,,,,,,,,,,,,,,,,,,,,,,,,,,,,,,,,,,,,,,,,,,,,,,1421.635194041999,1421.6444303329918,1422.3363967500045,1422.4195061246612,1431.0804451250006,1431.0689424999873,1431.069005917001,1431.0804451250006,1431.0804451250006,1431.5717094579886,2,0.4861472079937812,None,,,,,meg,001,2026-03-12_10h55.58.434,ASS_builder_online,,2025.1.1,None,2026-03-12 10h56.04.920449 +0900,
stimuli/stim_df2_soa0.18.wav,2,0.18,69,15,3,,,,,,,1,1.3400466250022873,None,,,,,,,,,3,15,69,2,1431.5984920829942,,,,,,,,,,,,,,,,,,,,,,,,,,,,,,,,,,,,,,,,,,,,,,,,,,,,,,,,1431.590994291997,1431.5984920829942,1432.2971057920076,1432.3802882496714,1441.0357809579873,1441.0283400420158,1441.0284010420146,1441.0357809579873,1441.0357809579873,1442.3821518330078,1,1.3400466250022873,None,,,,,meg,001,2026-03-12_10h55.58.434,ASS_builder_online,,2025.1.1,None,2026-03-12 10h56.04.920449 +0900,
stimuli/stim_df8_soa0.09.wav,8,0.09,70,16,3,,,,,,,1,1.7987680819933303,None,,,,,,,,,3,16,70,9,1442.403324999992,,,,,,,,,,,,,,,,,,,,,,,,,,,,,,,,,,,,,,,,,,,,,,,,,,,,,,,,1442.3924416250084,1442.403324999992,1443.097098667,1443.1866152086625,1447.5215966670075,1447.5147133750143,1447.5147833749943,1447.5215966670075,1447.5215966670075,1449.3323955420055,1,1.7987680819933303,None,,,,,meg,001,2026-03-12_10h55.58.434,ASS_builder_online,,2025.1.1,None,2026-03-12 10h56.04.920449 +0900,
stimuli/stim_df4_soa0.09.wav,4,0.09,71,17,3,,,,,,,2,1.6334754989948124,None,,,,,,,,,3,17,71,3,1449.3542013330152,,,,,,,,,,,,,,,,,,,,,,,,,,,,,,,,,,,,,,,,,,,,,,,,,,,,,,,,1449.3435774999962,1449.3542013330152,1450.0527951669937,1450.1366703746646,1454.470005457988,1454.4634302500053,1454.4634955420042,1454.470005457988,1454.470005457988,1456.1062560830032,2,1.6334754989948124,None,,,,,meg,001,2026-03-12_10h55.58.434,ASS_builder_online,,2025.1.1,None,2026-03-12 10h56.04.920449 +0900,
stimuli/stim_df2_soa0.18.wav,2,0.18,72,0,4,,,,,,,2,3.1050957909901626,None,,,,,,,,,4,0,72,2,1456.1346937080089,,,,,,,,,,,,,,,,,,,,,,,,,,,,,,,,,,,,,,,,,,,,,,,,,,,,,,,,1456.1259953750123,1456.1346937080089,1456.8303235830099,1456.9139317086704,1465.5689798330131,1465.5616483750055,1465.5617060830118,1465.5689798330131,1465.5689798330131,1468.6824224999873,2,3.1050957909901626,None,,,,,meg,001,2026-03-12_10h55.58.434,ASS_builder_online,,2025.1.1,None,2026-03-12 10h56.04.920449 +0900,
stimuli/stim_df10_soa0.18.wav,10,0.18,73,1,4,,,,,,,2,1.096321706980234,None,,,,,,,,,4,1,73,14,1468.7086800830148,,,,,,,,,,,,,,,,,,,,,,,,,,,,,,,,,,,,,,,,,,,,,,,,,,,,,,,,1468.700946249999,1468.7086800830148,1469.4028620829922,1469.4862565836559,1478.1471009170054,1478.1355498750054,1478.1356042080151,1478.1471009170054,1478.1471009170054,1479.2489022919908,2,1.096321706980234,None,,,,,meg,001,2026-03-12_10h55.58.434,ASS_builder_online,,2025.1.1,None,2026-03-12 10h56.04.920449 +0900,
stimuli/stim_df6_soa0.12.wav,6,0.12,74,2,4,,,,,,,2,1.115105916018365,None,,,,,,,,,4,2,74,7,1479.269589500007,,,,,,,,,,,,,,,,,,,,,,,,,,,,,,,,,,,,,,,,,,,,,,,,,,,,,,,,1479.260349416989,1479.269589500007,1479.9636557500053,1480.0527219166727,1485.830267582991,1485.8198978750152,1485.8199553329905,1485.830267582991,1485.830267582991,1486.9490087500017,2,1.115105916018365,None,,,,,meg,001,2026-03-12_10h55.58.434,ASS_builder_online,,2025.1.1,None,2026-03-12 10h56.04.920449 +0900,
stimuli/stim_df2_soa0.12.wav,2,0.12,75,3,4,,,,,,,2,0.8834929159784224,None,,,,,,,,,4,3,75,1,1486.9731847920048,,,,,,,,,,,,,,,,,,,,,,,,,,,,,,,,,,,,,,,,,,,,,,,,,,,,,,,,1486.9634587499895,1486.9731847920048,1487.6698443329951,1487.7529532916708,1493.5303370420006,1493.5204491250042,1493.520515375014,1493.5303370420006,1493.5303370420006,1494.4214809580008,2,0.8834929159784224,None,,,,,meg,001,2026-03-12_10h55.58.434,ASS_builder_online,,2025.1.1,None,2026-03-12 10h56.04.920449 +0900,
stimuli/stim_df8_soa0.09.wav,8,0.09,76,4,4,,,,,,,2,0.4130470829841215,None,,,,,,,,,4,4,76,9,1494.4437164580158,,,,,,,,,,,,,,,,,,,,,,,,,,,,,,,,,,,,,,,,,,,,,,,,,,,,,,,,1494.4337207500066,1494.4437164580158,1495.1363854999945,1495.2303879586727,1499.5642362920044,1499.5574613749923,1499.5575204170018,1499.5642362920044,1499.5642362920044,1499.9824564169976,2,0.4130470829841215,None,,,,,meg,001,2026-03-12_10h55.58.434,ASS_builder_online,,2025.1.1,None,2026-03-12 10h56.04.920449 +0900,
stimuli/stim_df12_soa0.12.wav,12,0.12,77,5,4,,,,,,,1,0.2293663329910487,None,,,,,,,,,4,5,77,16,1500.0052864580066,,,,,,,,,,,,,,,,,,,,,,,,,,,,,,,,,,,,,,,,,,,,,,,,,,,,,,,,1499.9974282500043,1500.0052864580066,1500.7027760419878,1500.7861130836575,1506.5636632080132,1506.5534076250042,1506.5534982499958,1506.5636632080132,1506.5636632080132,1506.7989160419966,1,0.2293663329910487,None,,,,,meg,001,2026-03-12_10h55.58.434,ASS_builder_online,,2025.1.1,None,2026-03-12 10h56.04.920449 +0900,
stimuli/stim_df6_soa0.09.wav,6,0.09,78,6,4,,,,,,,1,0.2977267490059603,None,,,,,,,,,4,6,78,6,1506.8204064999882,,,,,,,,,,,,,,,,,,,,,,,,,,,,,,,,,,,,,,,,,,,,,,,,,,,,,,,,1506.810340750002,1506.8204064999882,1507.5136177919921,1507.6027753336568,1511.939028416993,1511.9315508329892,1511.9316707919934,1511.939028416993,1511.939028416993,1512.246980291995,1,0.2977267490059603,None,,,,,meg,001,2026-03-12_10h55.58.434,ASS_builder_online,,2025.1.1,None,2026-03-12 10h56.04.920449 +0900,
stimuli/stim_df10_soa0.09.wav,10,0.09,79,7,4,,,,,,,1,0.5857216660224367,None,,,,,,,,,4,7,79,12,1512.2696662500093,,,,,,,,,,,,,,,,,,,,,,,,,,,,,,,,,,,,,,,,,,,,,,,,,,,,,,,,1512.258874332998,1512.2696662500093,1512.9637460829981,1513.047073124679,1517.397468582989,1517.3752688330133,1517.3753304170095,1517.397468582989,1517.397468582989,1517.9887774579984,1,0.5857216660224367,None,,,,,meg,001,2026-03-12_10h55.58.434,ASS_builder_online,,2025.1.1,None,2026-03-12 10h56.04.920449 +0900,
stimuli/stim_df4_soa0.09.wav,4,0.09,80,8,4,,,,,,,1,0.5324896659876686,None,,,,,,,,,4,8,80,3,1518.009017458011,,,,,,,,,,,,,,,,,,,,,,,,,,,,,,,,,,,,,,,,,,,,,,,,,,,,,,,,1518.000681000005,1518.009017458011,1518.7031362499984,1518.7969961666715,1523.1303772079991,1523.1239134169882,1523.1239783749916,1523.1303772079991,1523.1303772079991,1523.6654837499955,1,0.5324896659876686,None,,,,,meg,001,2026-03-12_10h55.58.434,ASS_builder_online,,2025.1.1,None,2026-03-12 10h56.04.920449 +0900,
stimuli/stim_df2_soa0.09.wav,2,0.09,81,9,4,,,,,,,1,0.4993731660069898,None,,,,,,,,,4,9,81,0,1523.687022291997,,,,,,,,,,,,,,,,,,,,,,,,,,,,,,,,,,,,,,,,,,,,,,,,,,,,,,,,1523.6772471250151,1523.687022291997,1524.3802183750086,1524.4699539996548,1528.8137317920045,1528.798084167007,1528.7981485830096,1528.8137317920045,1528.8137317920045,1529.315495457995,1,0.4993731660069898,None,,,,,meg,001,2026-03-12_10h55.58.434,ASS_builder_online,,2025.1.1,None,2026-03-12 10h56.04.920449 +0900,
stimuli/stim_df10_soa0.12.wav,10,0.12,82,10,4,,,,,,,2,1.172732165985508,None,,,,,,,,,4,10,82,13,1529.337881332991,,,,,,,,,,,,,,,,,,,,,,,,,,,,,,,,,,,,,,,,,,,,,,,,,,,,,,,,1529.3294472499983,1529.337881332991,1530.036529917008,1530.119927041673,1535.897038791998,1535.8870836670103,1535.8871684170153,1535.897038791998,1535.897038791998,1537.071645332995,2,1.172732165985508,None,,,,,meg,001,2026-03-12_10h55.58.434,ASS_builder_online,,2025.1.1,None,2026-03-12 10h56.04.920449 +0900,
stimuli/stim_df8_soa0.18.wav,8,0.18,83,11,4,,,,,,,2,0.6531919989793096,None,,,,,,,,,4,11,83,11,1537.099367582996,,,,,,,,,,,,,,,,,,,,,,,,,,,,,,,,,,,,,,,,,,,,,,,,,,,,,,,,1537.0913885000045,1537.099367582996,1537.7969218750077,1537.8802658336683,1546.5356616250065,1546.5284447919985,1546.528506667004,1546.5356616250065,1546.5356616250065,1547.1992065419909,2,0.6531919989793096,None,,,,,meg,001,2026-03-12_10h55.58.434,ASS_builder_online,,2025.1.1,None,2026-03-12 10h56.04.920449 +0900,
stimuli/stim_df12_soa0.18.wav,12,0.18,84,12,4,,,,,,,2,0.5698834990034811,None,,,,,,,,,4,12,84,17,1547.2283137500053,,,,,,,,,,,,,,,,,,,,,,,,,,,,,,,,,,,,,,,,,,,,,,,,,,,,,,,,1547.2191877920122,1547.2283137500053,1547.9195543749956,1548.002654541666,1556.6637540420052,1556.6521010000142,1556.6521690000081,1556.6637540420052,1556.6637540420052,1557.237971583003,2,0.5698834990034811,None,,,,,meg,001,2026-03-12_10h55.58.434,ASS_builder_online,,2025.1.1,None,2026-03-12 10h56.04.920449 +0900,
stimuli/stim_df4_soa0.12.wav,4,0.12,85,13,4,,,,,,,1,0.6509942910051905,None,,,,,,,,,4,13,85,4,1557.261308791989,,,,,,,,,,,,,,,,,,,,,,,,,,,,,,,,,,,,,,,,,,,,,,,,,,,,,,,,1557.253559875011,1557.261308791989,1557.9530484999996,1558.046980333664,1563.830439707992,1563.8146390420152,1563.814739249996,1563.830439707992,1563.830439707992,1564.4881114579912,1,0.6509942910051905,None,,,,,meg,001,2026-03-12_10h55.58.434,ASS_builder_online,,2025.1.1,None,2026-03-12 10h56.04.920449 +0900,
stimuli/stim_df12_soa0.09.wav,12,0.09,86,14,4,,,,,,,2,0.4824531250051223,None,,,,,,,,,4,14,86,15,1564.5132431669917,,,,,,,,,,,,,,,,,,,,,,,,,,,,,,,,,,,,,,,,,,,,,,,,,,,,,,,,1564.5027826250007,1564.5132431669917,1565.2027059580141,1565.2970183336622,1569.631515999994,1569.6243751670117,1569.6244392920053,1569.631515999994,1569.631515999994,1570.1214970000146,2,0.4824531250051223,None,,,,,meg,001,2026-03-12_10h55.58.434,ASS_builder_online,,2025.1.1,None,2026-03-12 10h56.04.920449 +0900,
stimuli/stim_df8_soa0.12.wav,8,0.12,87,15,4,,,,,,,1,0.6589239159948193,None,,,,,,,,,4,15,87,10,1570.1444433750003,,,,,,,,,,,,,,,,,,,,,,,,,,,,,,,,,,,,,,,,,,,,,,,,,,,,,,,,1570.1368902079994,1570.1444433750003,1570.8361689170124,1570.9303684996596,1576.7136670000036,1576.698326749989,1576.698385333002,1576.7136670000036,1576.7136670000036,1577.382468625001,1,0.6589239159948193,None,,,,,meg,001,2026-03-12_10h55.58.434,ASS_builder_online,,2025.1.1,None,2026-03-12 10h56.04.920449 +0900,
stimuli/stim_df6_soa0.18.wav,6,0.18,88,16,4,,,,,,,2,0.49369674900663085,None,,,,,,,,,4,16,88,8,1577.4104464999982,,,,,,,,,,,,,,,,,,,,,,,,,,,,,,,,,,,,,,,,,,,,,,,,,,,,,,,,1577.4030354169954,1577.4104464999982,1578.102999249997,1578.1860407916577,1586.8470345000096,1586.8336688329873,1586.833735332999,1586.8470345000096,1586.8470345000096,1587.3493010420061,2,0.49369674900663085,None,,,,,meg,001,2026-03-12_10h55.58.434,ASS_builder_online,,2025.1.1,None,2026-03-12 10h56.04.920449 +0900,
stimuli/stim_df4_soa0.18.wav,4,0.18,89,17,4,,,,,,,2,1.4968220829905476,None,,,,,,,,,4,17,89,5,1587.3778730829945,,,,,,,,,,,,,,,,,,,,,,,,,,,,,,,,,,,,,,,,,,,,,,,,,,,,,,,,1587.370732750016,1587.3778730829945,1588.0695915000106,1588.1525900416639,1596.8136475000065,1596.8019577079976,1596.8020221670158,1596.8136475000065,1596.8136475000065,1598.3156503330101,2,1.4968220829905476,None,,,,,meg,001,2026-03-12_10h55.58.434,ASS_builder_online,,2025.1.1,None,2026-03-12 10h56.04.920449 +0900,
,,,,,,,,,,,,,,,,,,,,,,,,,,,,,,,,,,,,,,,,,,,,,,,,,,,,,,,,,,,,,,,,,,,,,,,,,,,,,,,,,,,,,,,,,,,,,,,,1598.315977833001,1598.328263375006,1600.319561375014,1600.3139662499889,meg,001,2026-03-12_10h55.58.434,ASS_builder_online,,2025.1.1,None,2026-03-12 10h56.04.920449 +0900,
